time,pressure,altitude,velocity,acc_x,acc_y,acc_z,acc_tot
-4.68,98.5661,-0.807,0,25.971,-3.558,-18.616,32.151
-4.66,98.5651,-0.579,0,26.326,-3.558,-18.112,32.153
-4.64,98.5667,-0.76,0,26.326,-3.558,-18.112,32.153
-4.62,98.5635,-0.331,0,26.149,-3.38,-18.112,31.988
-4.6,98.5672,-0.304,0,26.326,-3.558,-18.364,32.295
-4.58,98.5672,-0.655,0,26.149,-3.736,-18.364,32.171
-4.56,98.5672,-0.591,0,26.326,-3.558,-18.112,32.153
-4.54,98.5661,-0.303,0,26.326,-3.558,-18.364,32.295
-4.52,98.5651,0.097,0,26.149,-3.736,-18.112,32.028
-4.5,98.5687,-0.417,0,26.149,-3.38,-18.364,32.131
-4.48,98.5672,-0.38,0,26.326,-3.558,-18.112,32.153
-4.46,98.5625,-0.235,0,26.504,-3.736,-18.112,32.319
-4.44,98.5646,-0.008,0,26.326,-3.558,-18.112,32.153
-4.42,98.562,0.442,0,26.326,-3.558,-18.112,32.153
-4.4,98.5604,1.117,0,26.326,-3.558,-18.364,32.295
-4.38,98.5625,0.797,0,26.326,-3.558,-18.364,32.295
-4.36,98.564,0.466,0,26.326,-3.558,-18.364,32.295
-4.34,98.5646,0.239,0,26.149,-3.736,-18.364,32.171
-4.32,98.5651,0.05,0,26.326,-3.558,-18.364,32.295
-4.3,98.5667,-0.323,0,26.326,-3.558,-18.364,32.295
-4.28,98.5651,0.322,0,26.326,-3.558,-18.616,32.439
-4.26,98.564,0.724,0,25.971,-3.558,-18.112,31.862
-4.24,98.5667,0.369,0,26.504,-3.736,-18.616,32.603
-4.22,98.564,0.299,0,26.149,-3.736,-18.112,32.028
-4.2,98.5672,-0.091,0,26.326,-3.913,-18.112,32.194
-4.18,98.5698,-0.23,0,26.149,-3.38,-18.364,32.131
-4.16,98.5661,-0.057,0,26.149,-3.736,-18.112,32.028
-4.14,98.5609,0.802,0,26.149,-3.736,-18.112,32.028
-4.12,98.5677,0.483,0,26.149,-3.736,-18.364,32.171
-4.1,98.564,0.72,0,26.504,-3.38,-18.112,32.279
-4.08,98.5651,0.457,0,25.971,-3.558,-18.364,32.006
-4.06,98.5687,-0.2,0,26.326,-3.558,-18.112,32.153
-4.04,98.5661,-0.492,0,26.326,-3.913,-18.112,32.194
-4.02,98.5625,-0.158,0,26.149,-3.38,-18.112,31.988
-4,98.5599,0.558,0,26.149,-3.736,-18.112,32.028
-3.98,98.562,0.959,0,26.149,-3.736,-18.364,32.171
-3.96,98.5635,1.046,0,26.149,-3.736,-18.112,32.028
-3.94,98.5656,0.986,0,25.971,-3.558,-18.112,31.862
-3.92,98.5656,0.536,0,26.326,-3.558,-18.364,32.295
-3.9,98.562,0.558,0,26.326,-3.558,-18.112,32.153
-3.88,98.5646,0.022,0,26.326,-3.558,-18.364,32.295
-3.86,98.5656,0.262,0,26.149,-3.736,-18.112,32.028
-3.84,98.5677,-0.039,0,26.149,-3.38,-18.364,32.131
-3.82,98.5677,-0.434,0,26.149,-3.736,-18.112,32.028
-3.8,98.5687,-0.678,0,26.149,-3.736,-18.364,32.171
-3.78,98.5677,-0.958,0,26.504,-3.736,-18.364,32.46
-3.76,98.5656,-0.822,0,26.149,-3.736,-18.112,32.028
-3.74,98.5656,-0.581,0,26.149,-3.38,-18.364,32.131
-3.72,98.5687,-0.865,0,26.326,-3.913,-18.112,32.194
-3.7,98.5682,-1.072,0,26.326,-3.913,-18.112,32.194
-3.68,98.563,-0.222,0,26.149,-3.38,-18.112,31.988
-3.66,98.5651,0.019,0,25.971,-3.558,-18.112,31.862
-3.64,98.5672,-0.065,0,26.326,-3.558,-18.364,32.295
-3.62,98.5719,-0.36,0,26.326,-3.558,-18.616,32.439
-3.6,98.5646,-0.152,0,26.326,-3.913,-18.364,32.336
-3.58,98.563,0.338,0,26.326,-3.913,-18.112,32.194
-3.56,98.5651,0.495,0,26.149,-3.736,-18.112,32.028
-3.54,98.5661,0.546,0,26.149,-3.736,-18.112,32.028
-3.52,98.5672,0.296,0,26.149,-3.736,-18.364,32.171
-3.5,98.563,0.299,0,26.149,-3.736,-18.112,32.028
-3.48,98.563,0.512,0,26.326,-3.558,-18.364,32.295
-3.46,98.5667,0.448,0,26.326,-3.558,-18.364,32.295
-3.44,98.5708,-0.002,0,26.504,-3.38,-18.364,32.421
-3.42,98.5656,0.02,0,26.149,-3.736,-18.112,32.028
-3.4,98.5635,0.371,0,26.326,-3.558,-18.364,32.295
-3.38,98.5651,0.313,0,26.149,-3.736,-18.364,32.171
-3.36,98.5667,0.206,0,26.326,-3.913,-18.364,32.336
-3.34,98.5661,-0.156,0,26.326,-3.558,-18.364,32.295
-3.32,98.5667,-0.773,0,26.326,-3.558,-18.364,32.295
-3.3,98.5667,-0.915,0,26.326,-3.558,-18.112,32.153
-3.28,98.5667,-1.006,0,26.504,-3.736,-18.364,32.46
-3.26,98.5599,-0.28,0,26.149,-3.736,-18.616,32.315
-3.24,98.5651,-0.243,0,26.326,-3.558,-18.112,32.153
-3.22,98.563,-0.044,0,26.504,-3.38,-18.112,32.279
-3.2,98.5651,-0.268,0,25.971,-3.558,-18.112,31.862
-3.18,98.564,-0.333,0,26.326,-3.558,-18.364,32.295
-3.16,98.564,-0.379,0,26.149,-3.736,-18.364,32.171
-3.14,98.5661,-0.632,0,26.149,-3.736,-18.364,32.171
-3.12,98.564,-0.604,0,26.504,-3.38,-18.364,32.421
-3.1,98.5656,-0.741,0,26.326,-3.558,-18.112,32.153
-3.08,98.5651,-0.785,0,25.971,-3.558,-18.112,31.862
-3.06,98.5667,-0.976,0,26.149,-3.736,-18.112,32.028
-3.04,98.564,-0.837,0,25.971,-3.558,-18.112,31.862
-3.02,98.5599,-0.278,0,26.326,-3.913,-18.112,32.194
-3,98.5677,-0.385,0,26.326,-3.913,-18.364,32.336
-2.98,98.5661,-0.254,0,26.149,-3.736,-18.364,32.171
-2.96,98.564,0.286,0,26.149,-3.736,-18.364,32.171
-2.94,98.562,0.975,0,26.326,-3.558,-18.364,32.295
-2.92,98.562,1.271,0,26.326,-3.913,-18.112,32.194
-2.9,98.5646,0.974,0,26.149,-3.736,-18.112,32.028
-2.88,98.5625,0.762,0,26.149,-3.736,-18.364,32.171
-2.86,98.564,0.736,0,26.149,-3.736,-18.364,32.171
-2.84,98.5687,0.25,0,26.326,-3.558,-18.112,32.153
-2.82,98.5661,-0.09,0,26.504,-3.736,-18.112,32.319
-2.8,98.5646,0.195,0,26.149,-3.38,-18.112,31.988
-2.78,98.5667,0.365,0,26.326,-3.558,-18.112,32.153
-2.76,98.5651,0.166,0,25.971,-3.558,-18.364,32.006
-2.74,98.5698,-0.65,0,26.326,-3.558,-18.112,32.153
-2.72,98.5672,-0.68,0,26.326,-3.558,-18.364,32.295
-2.7,98.5667,-0.68,0,26.149,-3.736,-18.112,32.028
-2.68,98.5693,-0.663,0,26.326,-3.558,-18.364,32.295
-2.66,98.5661,-0.794,0,26.326,-3.558,-18.364,32.295
-2.64,98.5635,-0.381,0,26.149,-3.38,-18.364,32.131
-2.62,98.5672,-0.757,0,26.326,-3.558,-18.364,32.295
-2.6,98.5651,-0.658,0,26.504,-3.736,-18.364,32.46
-2.58,98.563,-0.622,0,26.326,-3.558,-18.364,32.295
-2.56,98.563,-0.032,0,26.326,-3.558,-18.112,32.153
-2.54,98.5625,0.161,0,26.326,-3.558,-18.112,32.153
-2.52,98.5656,0.086,0,26.326,-3.558,-18.112,32.153
-2.5,98.5661,-0.09,0,26.149,-3.38,-18.112,31.988
-2.48,98.5646,0.15,0,26.149,-3.38,-18.364,32.131
-2.46,98.5635,0.277,0,26.149,-3.736,-18.364,32.171
-2.44,98.5677,-0.132,0,26.149,-3.736,-18.112,32.028
-2.42,98.5672,-0.351,0,26.149,-3.736,-18.364,32.171
-2.4,98.5703,-1.129,0,26.504,-3.736,-18.112,32.319
-2.38,98.5646,-0.851,0,26.326,-3.558,-18.364,32.295
-2.36,98.5677,-1.002,0,25.971,-3.913,-18.112,31.904
-2.34,98.5661,-0.772,0,26.149,-3.736,-18.112,32.028
-2.32,98.5651,-0.195,0,26.326,-3.913,-18.112,32.194
-2.3,98.5656,-0.622,0,26.149,-3.736,-18.112,32.028
-2.28,98.5656,-0.348,0,26.326,-3.558,-17.861,32.012
-2.26,98.5672,-0.462,0,26.682,-3.558,-18.364,32.586
-2.24,98.5635,-0.385,0,26.326,-3.558,-18.364,32.295
-2.22,98.5661,-0.11,0,26.682,-3.558,-18.364,32.586
-2.2,98.5661,0.103,0,26.326,-3.558,-18.112,32.153
-2.18,98.5646,0.483,0,25.971,-3.558,-18.364,32.006
-2.16,98.5672,0.049,0,26.326,-3.558,-18.364,32.295
-2.14,98.5667,0.353,0,26.149,-3.736,-18.112,32.028
-2.12,98.563,0.688,0,26.149,-3.38,-18.112,31.988
-2.1,98.5677,0.276,0,26.326,-3.558,-18.364,32.295
-2.08,98.5646,0.373,0,26.149,-3.736,-18.364,32.171
-2.06,98.5693,-0.222,0,25.971,-3.202,-18.112,31.824
-2.04,98.5635,0.132,0,26.149,-3.38,-18.112,31.988
-2.02,98.5677,-0.414,0,26.149,-3.736,-18.364,32.171
-2,98.5672,-0.403,0,26.326,-3.558,-18.112,32.153
-1.98,98.5651,-0.496,0,26.326,-3.558,-17.861,32.012
-1.96,98.5682,-0.615,0,26.326,-3.558,-18.112,32.153
-1.94,98.564,0.024,0,26.149,-3.736,-18.364,32.171
-1.92,98.5651,0.036,0,26.504,-3.736,-18.112,32.319
-1.9,98.5667,-0.064,0,26.504,-3.736,-18.112,32.319
-1.88,98.5656,-0.091,0,26.149,-3.736,-18.112,32.028
-1.86,98.5635,-0.386,0,26.149,-3.736,-18.364,32.171
-1.84,98.5651,-0.341,0,26.326,-3.558,-18.364,32.295
-1.82,98.5656,-0.243,0,26.326,-3.558,-18.616,32.439
-1.8,98.5677,-0.328,0,26.326,-3.558,-18.112,32.153
-1.78,98.5656,-0.281,0,26.326,-3.558,-18.112,32.153
-1.76,98.5682,-0.407,0,26.149,-3.736,-18.112,32.028
-1.74,98.5651,-0.06,0,26.326,-3.558,-18.112,32.153
-1.72,98.5651,-0.004,0,26.504,-3.736,-18.112,32.319
-1.7,98.5677,-0.514,0,26.149,-3.736,-18.112,32.028
-1.68,98.5656,-0.257,0,26.504,-3.38,-18.112,32.279
-1.66,98.5687,-0.656,0,26.326,-3.558,-18.112,32.153
-1.64,98.5661,-0.524,0,26.149,-3.38,-18.616,32.276
-1.62,98.563,-0.248,0,26.326,-3.913,-18.112,32.194
-1.6,98.5646,-0.08,0,26.149,-3.736,-18.112,32.028
-1.58,98.563,0.377,0,25.971,-3.558,-18.364,32.006
-1.56,98.5646,0.508,0,26.149,-3.736,-18.112,32.028
-1.54,98.5651,0.264,0,25.971,-3.558,-18.364,32.006
-1.52,98.5667,0.114,0,26.326,-3.558,-18.112,32.153
-1.5,98.5651,0.153,0,26.149,-3.736,-18.112,32.028
-1.48,98.564,-0.042,0,26.504,-3.38,-18.364,32.421
-1.46,98.564,-0.092,0,26.326,-3.558,-18.112,32.153
-1.44,98.5682,-0.463,0,26.326,-3.558,-18.364,32.295
-1.42,98.5677,-0.42,0,25.971,-3.558,-18.364,32.006
-1.4,98.5672,-0.542,0,26.149,-3.736,-18.364,32.171
-1.38,98.5661,-0.462,0,26.504,-3.736,-17.861,32.178
-1.36,98.5646,-0.173,0,26.149,-3.38,-17.861,31.846
-1.34,98.5682,-0.436,0,26.149,-3.736,-17.861,31.886
-1.32,98.5651,0.298,0,25.971,-3.558,-18.364,32.006
-1.3,98.5682,0.325,0,26.326,-3.913,-18.364,32.336
-1.28,98.5656,0.336,0,26.326,-3.913,-18.364,32.336
-1.26,98.5614,0.059,0,26.149,-3.38,-18.364,32.131
-1.24,98.5682,0.053,0,26.326,-3.558,-18.112,32.153
-1.22,98.5677,-0.286,0,26.326,-3.558,-18.364,32.295
-1.2,98.5682,-0.445,0,26.326,-3.558,-18.364,32.295
-1.18,98.5677,-0.616,0,26.326,-3.558,-18.364,32.295
-1.16,98.5656,-0.466,0,26.504,-3.736,-18.364,32.46
-1.14,98.5646,0.16,0,26.149,-3.736,-18.364,32.171
-1.12,98.5625,-0.01,0,25.971,-3.558,-18.112,31.862
-1.1,98.5677,-0.093,0,26.326,-3.913,-18.112,32.194
-1.08,98.5646,-0.16,0,26.326,-3.558,-18.112,32.153
-1.06,98.5661,-0.049,0,26.326,-3.558,-18.112,32.153
-1.04,98.5672,-0.179,0,26.682,-3.913,-18.364,32.627
-1.02,98.5635,-0.118,0,26.326,-3.558,-18.112,32.153
-1,98.5656,-0.237,0,26.326,-3.558,-18.364,32.295
-0.98,98.564,-0.218,0,26.149,-3.736,-18.112,32.028
-0.96,98.5677,-0.696,0,26.504,-3.736,-18.364,32.46
-0.94,98.5651,-0.683,0,26.504,-3.38,-18.112,32.279
-0.92,98.5677,-0.988,0,25.971,-3.558,-18.616,32.151
-0.9,98.5672,-0.72,0,26.504,-3.38,-18.364,32.421
-0.88,98.5625,-0.551,0,26.149,-3.736,-18.112,32.028
-0.86,98.5667,-0.629,0,26.149,-3.736,-18.112,32.028
-0.84,98.5625,-0.685,0,26.149,-3.736,-18.112,32.028
-0.82,98.5667,-0.615,0,26.326,-3.558,-18.112,32.153
-0.8,98.5635,-0.551,0,26.326,-3.913,-18.112,32.194
-0.78,98.5667,-0.887,0,26.149,-3.736,-18.364,32.171
-0.76,98.5672,-0.65,0,26.149,-3.38,-18.112,31.988
-0.74,98.5661,-0.68,0,26.149,-3.38,-18.364,32.131
-0.72,98.5656,-0.534,0,25.971,-3.558,-18.364,32.006
-0.7,98.5661,-0.143,0,25.971,-3.558,-18.112,31.862
-0.68,98.5714,-0.502,0,26.149,-3.736,-18.364,32.171
-0.66,98.563,-0.13,0,26.149,-3.38,-18.112,31.988
-0.64,98.5661,-0.174,0,26.326,-3.558,-18.364,32.295
-0.62,98.563,0.001,0,26.504,-3.736,-18.112,32.319
-0.6,98.5667,-0.088,0,26.504,-3.38,-18.112,32.279
-0.58,98.5708,-1.161,0,26.504,-3.736,-18.364,32.46
-0.56,98.562,-0.793,0,26.504,-3.38,-18.364,32.421
-0.54,98.563,-0.44,0,26.326,-3.913,-18.112,32.194
-0.52,98.5672,-0.43,0,26.149,-3.736,-18.112,32.028
-0.5,98.5672,-0.316,0,26.326,-3.558,-18.364,32.295
-0.48,98.5651,-0.172,0,26.326,-3.558,-18.112,32.153
-0.46,98.564,-0.064,0,26.326,-3.558,-18.112,32.153
-0.44,98.5646,0.014,0,26.149,-3.38,-18.112,31.988
-0.42,98.5661,-0.213,0,26.326,-3.913,-18.364,32.336
-0.4,98.564,0.155,0,26.326,-3.558,-18.112,32.153
-0.38,98.5661,0.11,0,26.149,-3.736,-18.112,32.028
-0.36,98.564,-0.378,0,26.149,-3.736,-18.112,32.028
-0.34,98.5656,-0.603,0,26.149,-3.736,-18.364,32.171
-0.32,98.5609,-0.278,0,27.394,-3.558,-18.364,33.171
-0.3,98.562,0.365,0,27.394,-2.846,-18.364,33.102
-0.28,98.5682,0.205,0,26.326,-3.558,-18.364,32.295
-0.26,98.5656,0.342,0,25.793,-3.736,-18.364,31.882
-0.24,98.5656,-0.11,0,26.149,-3.736,-18.112,32.028
-0.22,98.5646,0.188,0,26.326,-3.558,-18.364,32.295
-0.2,98.5693,-0.241,0,26.149,-3.38,-18.364,32.131
-0.18,98.5651,-0.086,0,26.326,-3.558,-18.112,32.153
-0.16,98.5677,-0.457,0,26.326,-3.202,-17.861,31.974
-0.14,98.564,-0.138,0,26.504,-3.736,-18.112,32.319
-0.12,98.5651,0.118,0,26.326,-3.558,-18.364,32.295
-0.1,98.5614,0.212,0,26.504,-3.736,-18.364,32.46
-0.08,98.5682,-0.217,0,26.682,-3.558,-18.112,32.445
-0.06,98.5646,-0.388,0,26.149,-3.736,-18.112,32.028
-0.04,98.5672,-0.41,0,26.326,-3.913,-18.112,32.194
-0.02,98.564,-0.032,0,26.682,-3.202,-18.364,32.549
0,98.5667,0.046,0,27.038,-3.202,-18.364,32.841
0.02,98.5646,0.11,0,25.615,-3.913,-18.112,31.615
0.04,98.5661,-0.397,0,26.149,-3.736,-18.112,32.028
0.06,98.5656,-0.464,0,26.504,-3.736,-18.616,32.603
0.08,98.5646,-0.618,0,30.24,-3.558,-18.616,35.688
0.1,98.5301,3.347,12.377,604.442,-123.806,-207.791,618.841
0.12,98.4366,16.201,25.724,593.946,-134.301,-344.389,667.381
0.14,98.5411,20.187,39.41,582.206,-146.041,-391.18,684.259
0.16,98.5358,24.609,53.151,616.182,-112.065,-353.697,687.064
0.18,98.5332,21.695,67.145,590.567,-137.68,-409.795,699.686
0.2,98.528,19.495,80.864,582.74,-145.507,-393.695,685.96
0.22,98.5212,18.173,95.13,612.624,-115.623,-408.789,713.31
0.24,98.5197,17.065,109.187,604.264,-123.983,-399.733,702.846
0.26,98.5082,17.073,123.586,612.802,-115.445,-420.612,719.976
0.28,98.4977,18.168,138.015,624.364,-103.883,-409.041,721.416
0.3,98.4847,19.923,152.128,605.865,-122.383,-403.003,705.676
0.32,98.4732,22.748,166.305,606.042,-122.205,-408.538,708.829
0.34,98.4559,26.615,180.613,603.374,-124.873,-423.38,715.399
0.36,98.4298,32.193,195.028,610.312,-117.935,-424.889,720.741
0.38,98.4032,38.988,209.38,605.509,-122.738,-424.889,717.624
0.4,98.363,48.08,224.037,613.691,-114.556,-442.247,732.864
0.42,98.3212,59.503,238.754,609.422,-118.825,-452.058,735.831
0.44,98.2648,73.585,253.572,607.999,-120.248,-462.12,740.896
0.46,98.2502,85.288,268.355,608.533,-119.714,-458.598,739.134
0.48,98.2408,94.355,283.011,586.12,-142.127,-470.673,732.829
0.5,98.2758,96.518,297.36,583.274,-144.973,-448.033,717.439
0.52,98.294,94.991,313.091,628.456,-99.792,-515.2,786.546
0.54,98.3196,89.9,327.404,590.567,-91.787,-449.542,715.652
0.56,98.3275,86.982,341.74,599.283,-119.359,-433.191,716.826
0.58,98.3233,84.175,356.383,620.807,-107.44,-432.688,732.105
0.6,98.3144,81.914,370.902,618.85,-109.397,-424.134,725.977
0.62,98.3066,80.131,385.522,625.432,-93.921,-427.153,730.981
0.64,98.281,80.187,400.048,623.831,-79.157,-424.134,726.299
0.66,98.2491,82.349,414.503,618.672,-81.826,-424.889,722.771
0.68,98.2246,85.793,429.066,618.85,-69.552,-436.209,728.123
0.7,98.2094,89.632,443.729,619.206,-81.292,-442.498,733.195
0.72,98.2027,93.171,458.154,598.038,-88.941,-449.542,721.224
0.74,98.1943,96.574,472.505,553.745,-139.637,-485.767,717.535
0.76,98.1948,99.187,486.642,595.547,-112.777,-422.877,706.867
0.78,98.1807,102.237,500.807,598.038,-127.363,-417.594,708.243
0.8,98.1697,105.426,515.051,603.374,-120.959,-418.852,712.198
0.82,98.1494,109.446,529.237,610.312,-104.061,-408.034,709.286
0.84,98.1426,113.131,543.397,602.485,-84.85,-421.619,708.036
0.86,98.1363,116.479,557.367,600.884,-67.239,-410.298,698.503
0.88,98.1097,121.08,571.393,599.105,-60.48,-418.852,701.299
0.9,98.0836,126.699,585.287,589.677,-64.571,-420.109,694.698
0.92,98.071,132.12,598.942,584.875,-76.489,-404.009,682.749
0.94,98.0632,136.985,612.343,563.885,-82.537,-410.298,670.027
0.96,98.0507,141.705,626.03,590.211,-96.412,-394.702,684.343
0.98,98.0392,146.201,639.307,582.918,-93.388,-368.791,663.875
1,98.0303,150.286,652.541,580.783,-83.071,-370.552,661.715
1.02,98.0147,154.523,665.646,571.889,-65.283,-375.834,655.238
1.04,98.0058,158.36,678.779,567.086,-53.364,-387.406,656.653
1.06,97.9891,162.444,691.553,545.918,-65.638,-384.388,638.687
1.08,97.9666,167.171,703.982,532.933,-75.778,-370.803,621.447
1.1,97.9468,172.231,714.336,444.882,-57.812,-317.975,517.682
1.12,97.9342,177.005,721.022,293.149,-30.596,-217.853,334.314
1.14,97.9243,181.317,724.678,170.411,8.183,-130.813,182.785
1.16,97.9133,185.308,725.868,68.129,18.322,-58.614,59.521
1.18,97.881,190.65,726.116,36.999,16.009,-19.119,12.418
1.2,97.8136,199.814,726.1,27.394,7.471,13.333,-0.831
1.22,97.7269,213.68,725.942,1.245,-2.312,24.15,-7.908
1.24,97.6392,231.561,724.501,-25.615,2.135,30.439,-72.04
1.26,97.5614,251.989,722.886,-39.134,1.423,28.678,-80.738
1.28,97.5123,272.239,719.948,-71.33,-13.697,88.802,-146.923
1.3,97.4653,292.014,717.771,-58.167,32.908,37.483,-108.825
1.32,97.4173,311.311,715.542,-57.812,33.62,42.514,-111.446
1.34,97.364,330.461,713.362,-54.432,24.548,48.3,-109
1.36,97.3066,349.682,711.236,-49.095,14.586,53.583,-106.323
1.38,97.2517,368.645,709.131,-50.874,7.827,51.822,-105.241
1.4,97.1896,387.838,707.054,-52.297,9.606,48.048,-103.865
1.42,97.1306,406.888,704.951,-56.922,11.74,44.023,-105.111
1.44,97.0868,424.565,702.866,-54.432,20.634,42.514,-104.284
1.46,97.034,441.677,700.759,-52.831,26.149,43.269,-105.323
1.48,96.9834,458.087,698.625,-55.321,24.37,43.52,-106.687
1.5,96.9369,473.539,696.514,-52.653,22.769,45.784,-105.596
1.52,96.8769,489.188,694.473,-49.095,10.317,48.552,-102.014
1.54,96.8231,504.508,692.449,-49.985,11.918,46.036,-101.191
1.56,96.7709,519.422,690.412,-50.696,9.783,46.791,-101.879
1.58,96.7229,533.664,688.428,-49.451,15.298,42.514,-99.184
1.6,96.6748,547.342,686.415,-51.23,17.788,41.759,-100.645
1.62,96.6242,560.755,684.381,-51.764,24.37,39.495,-101.721
1.64,96.5772,573.692,682.401,-51.052,20.812,37.734,-99.008
1.66,96.5292,586.333,680.453,-49.095,11.74,41.256,-97.394
1.68,96.4733,599.363,678.509,-45.182,10.317,45.533,-97.17
1.7,96.4164,612.84,676.572,-44.826,8.894,45.784,-96.889
1.72,96.3673,626.131,674.577,-47.85,14.764,45.281,-99.713
1.74,96.3204,639.127,672.637,-45.716,12.274,44.275,-97.014
1.76,96.2723,651.99,670.719,-48.74,13.519,38.741,-95.911
1.78,96.2316,664.206,668.769,-50.163,19.923,36.728,-97.485
1.8,96.1831,676.506,666.856,-46.783,17.255,39.244,-95.654
1.82,96.1371,688.724,664.914,-49.451,21.346,36.225,-97.11
1.84,96.0834,701.508,662.995,-46.961,17.788,39.244,-95.932
1.86,96.0348,714.407,661.099,-40.557,17.077,44.527,-94.803
1.88,95.9826,727.714,659.224,-39.134,8.183,46.791,-93.745
1.9,95.932,741.264,657.349,-40.913,14.231,43.772,-93.782
1.92,95.8839,754.841,655.521,-47.494,12.63,32.955,-91.371
1.94,95.8437,767.839,653.6,-54.432,16.721,28.93,-96.07
1.96,95.8024,780.446,651.812,-44.648,11.207,33.961,-89.405
1.98,95.7529,793.378,649.966,-43.937,16.543,37.483,-92.276
2,95.6986,806.971,648.049,-44.648,18.322,41.508,-95.856
2.02,95.6537,820.411,646.193,-41.091,15.476,41.759,-92.795
2.04,95.6047,834.048,644.339,-43.403,8.538,41.256,-92.688
2.06,95.5608,847.452,642.51,-43.937,14.764,36.98,-91.495
2.08,95.5133,860.947,640.698,-45.716,10.495,34.716,-90.554
2.1,95.4663,874.477,638.807,-49.273,12.985,35.973,-94.574
2.12,95.4225,887.798,636.983,-46.605,14.942,32.955,-91.203
2.14,95.3797,900.862,635.142,-43.759,17.788,36.728,-92.035
2.16,95.3306,914.198,633.331,-44.648,14.408,34.716,-90.563
2.18,95.2805,927.848,631.499,-43.225,16.543,37.231,-91.599
2.2,95.2403,940.993,629.71,-43.225,13.697,34.967,-89.46
2.22,95.1949,954.121,627.935,-43.225,11.207,34.716,-88.761
2.24,95.151,967.109,626.159,-42.514,13.697,34.716,-88.77
2.26,95.1088,979.856,624.376,-42.158,18.678,33.458,-89.17
2.28,95.0608,992.853,622.576,-43.403,15.298,34.967,-89.998
2.3,95.0149,1005.899,620.819,-42.692,14.231,32.703,-87.829
2.32,94.9736,1018.633,619.072,-40.557,11.74,35.47,-87.344
2.34,94.9256,1031.627,617.336,-42.158,5.87,34.213,-86.81
2.36,94.8823,1044.482,615.628,-40.201,4.981,34.464,-85.386
2.38,94.8384,1057.266,613.899,-41.98,12.807,31.948,-86.487
2.4,94.7956,1069.909,612.15,-42.869,12.63,32.452,-87.43
2.42,94.758,1082.031,610.4,-40.735,17.255,33.206,-87.515
2.44,94.7106,1094.486,608.667,-40.379,13.341,33.961,-86.622
2.46,94.6626,1107.278,606.959,-39.312,14.764,32.703,-85.425
2.48,94.6255,1119.503,605.309,-37.533,10.851,31.697,-82.511
2.5,94.5796,1131.948,603.638,-37.711,7.827,33.961,-83.549
2.52,94.5384,1144.215,601.978,-38.778,9.25,31.445,-82.975
2.54,94.495,1156.503,600.321,-38.6,9.428,31.445,-82.872
2.56,94.4513,1168.854,598.685,-36.466,11.207,31.697,-81.799
2.58,94.4074,1181.271,597.059,-36.821,12.63,29.936,-81.307
2.6,94.3615,1193.909,595.424,-38.778,12.452,28.175,-81.724
2.62,94.327,1205.838,593.8,-36.821,9.428,30.942,-81.211
2.64,94.2858,1217.696,592.186,-34.153,13.519,31.697,-80.717
2.66,94.2435,1229.594,590.556,-37.355,11.74,29.936,-81.489
2.68,94.2018,1241.488,588.932,-37.533,10.495,29.684,-81.19
2.7,94.1626,1253.183,587.359,-34.153,7.115,30.691,-78.665
2.72,94.1182,1265.134,585.738,-35.754,10.139,31.697,-81.045
2.74,94.0765,1277.091,584.139,-35.576,9.25,30.439,-79.926
2.76,94.0421,1288.49,582.511,-38.956,9.783,28.427,-81.407
2.78,94.0008,1299.959,580.996,-33.442,6.404,27.169,-75.76
2.8,93.9617,1311.334,579.466,-32.908,11.918,27.169,-76.507
2.82,93.9195,1322.88,577.956,-30.774,10.139,28.678,-75.469
2.84,93.8804,1334.334,576.455,-30.418,12.63,27.42,-75.056
2.86,93.8365,1346.099,574.958,-31.129,14.408,25.408,-74.887
2.88,93.8026,1357.343,573.473,-32.73,12.096,23.395,-74.211
2.9,93.7564,1369.124,571.986,-32.552,14.764,22.389,-74.377
2.92,93.7212,1380.495,570.513,-31.307,12.807,23.898,-73.616
2.94,93.6821,1391.84,569.098,-26.504,10.139,26.163,-70.797
2.96,93.6413,1403.293,567.651,-30.774,10.139,23.647,-72.312
2.98,93.6027,1414.675,566.248,-26.504,11.918,24.402,-70.147
3,93.5693,1425.588,564.813,-29.528,12.096,23.395,-71.767
3.02,93.5328,1436.353,563.361,-30.418,15.12,21.886,-72.608
3.04,93.4962,1447.011,561.953,-29.706,8.716,22.389,-70.406
3.06,93.4587,1457.665,560.515,-31.307,10.317,22.138,-71.907
3.08,93.4211,1468.328,559.06,-30.596,13.519,22.892,-72.733
3.1,93.3783,1479.423,557.593,-31.307,12.452,23.647,-73.363
3.12,93.332,1491.176,556.141,-28.461,11.74,26.163,-72.602
3.14,93.2964,1502.637,554.708,-27.572,10.495,26.163,-71.631
3.16,93.2531,1514.461,553.259,-30.951,10.673,23.395,-72.44
3.18,93.2166,1526.058,551.841,-28.817,11.029,23.395,-70.922
3.2,93.1777,1537.637,550.42,-28.461,10.673,24.15,-71.022
3.22,93.1352,1549.496,548.985,-27.572,9.072,26.917,-71.786
3.24,93.1018,1560.862,547.518,-30.418,11.562,25.156,-73.331
3.26,93.0628,1572.252,546.084,-27.927,10.495,25.911,-71.715
3.28,93.023,1583.721,544.67,-28.817,8.183,24.15,-70.678
3.3,92.9891,1594.79,543.258,-29.884,6.759,23.144,-70.598
3.32,92.9473,1606.144,541.795,-32.552,9.072,23.144,-73.158
3.34,92.9167,1616.862,540.39,-30.062,4.447,22.892,-70.247
3.36,92.8733,1628.049,538.936,-31.663,10.673,22.892,-72.703
3.38,92.8378,1639.02,537.492,-28.817,9.961,25.911,-72.213
3.4,92.7966,1650.256,536.036,-27.394,12.096,27.42,-72.803
3.42,92.756,1661.676,534.57,-28.461,9.961,27.923,-73.297
3.44,92.7178,1673.065,533.113,-28.105,11.029,27.169,-72.816
3.46,92.6772,1684.622,531.686,-29.35,7.293,24.905,-71.378
3.48,92.6479,1695.408,530.3,-28.105,1.779,24.15,-69.298
3.5,92.6111,1706.146,528.898,-29.528,5.336,23.144,-70.095
3.52,92.5764,1716.678,527.458,-32.019,6.759,22.641,-71.993
3.54,92.5357,1727.516,526.039,-29.706,10.851,22.389,-70.949
3.56,92.5044,1737.876,524.596,-30.24,11.029,23.647,-72.141
3.58,92.4648,1748.497,523.169,-28.461,9.606,25.156,-71.381
3.6,92.4346,1758.604,521.77,-25.971,8.183,26.163,-69.961
3.62,92.4021,1768.455,520.288,-31.841,11.562,24.653,-74.096
3.64,92.363,1778.63,518.87,-28.105,9.961,24.653,-70.89
3.66,92.3286,1788.725,517.483,-28.105,2.846,24.15,-69.365
3.68,92.2906,1799.045,516.067,-29.884,8.538,22.892,-70.801
3.7,92.2556,1809.327,514.648,-31.663,8.538,20.628,-70.942
3.72,92.2192,1819.692,513.149,-36.644,11.74,18.616,-74.945
3.74,92.1872,1829.785,511.766,-28.639,8.716,21.634,-69.135
3.76,92.1488,1840.167,510.354,-27.216,11.207,24.653,-70.594
3.78,92.1122,1850.655,508.908,-26.86,13.697,26.414,-72.285
3.8,92.0733,1861.423,507.529,-24.903,8.538,25.659,-68.963
3.82,92.0454,1871.55,506.113,-29.884,8.538,22.892,-70.801
3.84,92.0141,1881.404,504.741,-27.75,9.961,21.383,-68.621
3.86,91.9781,1891.414,503.409,-27.394,4.269,20.377,-66.607
3.88,91.9458,1901.256,502.02,-31.307,6.404,19.119,-69.438
3.9,91.9103,1911.227,500.654,-29.706,7.293,19.119,-68.272
3.92,91.8795,1920.934,499.302,-28.283,4.447,20.88,-67.636
3.94,91.8441,1930.794,497.928,-28.105,7.827,21.886,-68.671
3.96,91.8061,1941.001,496.516,-28.639,9.783,23.647,-70.607
3.98,91.7762,1950.851,495.125,-25.793,12.63,23.898,-69.562
4,91.7366,1961.188,493.783,-24.726,6.937,23.647,-67.109
4.02,91.6979,1971.865,492.375,-28.639,12.63,21.886,-70.393
4.04,91.6688,1982.057,491.037,-27.038,8.894,19.873,-66.915
4.06,91.6376,1992.014,489.736,-27.216,5.159,17.609,-65.024
4.08,91.6073,2001.686,488.429,-26.326,6.404,19.119,-65.36
4.1,91.5721,2011.519,487.102,-28.639,5.159,17.861,-66.344
4.12,91.541,2021.162,485.79,-25.259,2.846,21.634,-65.579
4.14,91.5071,2030.871,484.484,-24.548,1.779,22.138,-65.303
4.16,91.4743,2040.562,483.112,-27.216,9.783,22.138,-68.621
4.18,91.4365,2050.64,481.791,-25.259,7.827,21.131,-66.05
4.2,91.41,2060.138,480.454,-26.326,11.029,19.622,-66.837
4.22,91.3798,2069.444,479.174,-22.947,6.937,20.88,-63.991
4.24,91.3487,2078.663,477.881,-23.302,8.716,20.88,-64.68
4.26,91.3203,2087.599,476.595,-24.192,7.115,19.873,-64.307
4.28,91.29,2096.461,475.29,-25.437,6.937,19.873,-65.217
4.3,91.2548,2105.662,473.966,-28.283,6.226,17.861,-66.225
4.32,91.218,2115.296,472.68,-25.081,4.091,19.622,-64.307
4.34,91.1874,2124.801,471.416,-23.836,4.269,19.37,-63.21
4.36,91.1551,2134.339,470.069,-29.173,6.048,18.616,-67.331
4.38,91.1243,2143.78,468.787,-24.014,5.87,20.125,-64.077
4.4,91.0896,2153.458,467.495,-25.793,8.716,17.609,-64.624
4.42,91.0699,2162.129,466.215,-23.302,10.139,19.119,-64.002
4.44,91.0371,2171.007,464.927,-25.081,9.428,17.861,-64.402
4.46,90.9973,2180.632,463.631,-26.149,9.783,16.855,-64.812
4.48,90.9697,2189.919,462.37,-23.836,6.759,18.364,-63.04
4.5,90.939,2199.161,461.086,-23.658,10.851,18.616,-64.2
4.52,90.9104,2208.201,459.857,-21.879,5.514,18.616,-61.452
4.54,90.8785,2217.34,458.603,-21.879,5.159,20.628,-62.71
4.56,90.8505,2226.254,457.379,-21.346,6.048,18.616,-61.161
4.58,90.8196,2235.208,456.151,-22.413,5.692,17.861,-61.419
4.6,90.792,2243.942,454.918,-23.302,2.312,17.861,-61.651
4.62,90.7543,2253.313,453.683,-22.591,7.293,17.609,-61.757
4.64,90.7281,2262.296,452.415,-24.903,9.25,16.352,-63.395
4.66,90.7008,2271.036,451.186,-21.346,8.538,18.112,-61.468
4.68,90.6694,2279.906,449.957,-21.702,6.048,18.616,-61.425
4.7,90.6355,2289.102,448.698,-23.48,9.25,17.609,-62.973
4.72,90.611,2297.806,447.495,-20.456,5.87,18.112,-60.146
4.74,90.5772,2306.856,446.27,-23.125,3.913,17.106,-61.229
4.76,90.5517,2315.529,445.034,-23.125,8.183,16.603,-61.82
4.78,90.5204,2324.348,443.823,-22.413,3.913,16.855,-60.515
4.8,90.4932,2332.973,442.586,-24.014,6.582,16.1,-61.851
4.82,90.4588,2342.014,441.408,-19.745,5.514,17.106,-58.9
4.84,90.4368,2350.41,440.183,-22.057,8.183,17.106,-61.288
4.86,90.403,2359.213,438.972,-21.168,8.36,16.855,-60.521
4.88,90.3743,2367.961,437.772,-21.346,6.404,16.603,-59.991
4.9,90.3487,2376.404,436.579,-20.634,6.048,17.106,-59.677
4.92,90.3105,2385.621,435.404,-19.567,6.048,16.855,-58.724
4.94,90.2935,2393.773,434.236,-20.634,4.269,15.597,-58.416
4.96,90.2655,2401.916,433.029,-22.947,5.514,15.345,-60.35
4.98,90.2367,2410.127,431.863,-19.923,6.404,15.597,-58.3
5,90.2073,2418.445,430.654,-21.524,7.649,16.603,-60.439
5.02,90.1792,2426.759,429.49,-17.966,5.87,17.861,-58.205
5.04,90.1496,2435.202,428.301,-19.567,8.183,17.106,-59.448
5.06,90.1249,2443.353,427.137,-19.923,6.048,15.597,-58.215
5.08,90.0908,2452.03,425.964,-20.634,8.183,14.339,-58.626
5.1,90.063,2460.643,424.798,-19.923,7.115,15.345,-58.335
5.12,90.037,2469.056,423.656,-19.389,3.024,15.345,-57.111
5.14,90.0138,2477.07,422.487,-20.634,7.471,14.339,-58.414
5.16,89.9817,2485.484,421.324,-20.278,7.115,14.591,-58.176
5.18,89.9561,2493.699,420.17,-19.389,6.226,15.345,-57.699
5.2,89.9239,2502.293,419.018,-19.211,5.692,15.597,-57.592
5.22,89.9027,2510.312,417.842,-19.567,8.538,15.848,-58.788
5.24,89.8707,2518.732,416.698,-17.788,8.183,15.597,-57.233
5.26,89.8456,2526.928,415.562,-17.255,5.514,16.603,-56.772
5.28,89.8179,2535.14,414.406,-17.788,8.538,16.352,-57.826
5.3,89.7965,2542.865,413.261,-19.211,6.048,14.842,-57.219
5.32,89.7704,2550.557,412.151,-16.543,5.159,15.597,-55.514
5.34,89.7412,2558.486,410.995,-21.346,4.625,13.333,-57.789
5.36,89.7158,2566.31,409.867,-19.923,4.269,13.081,-56.413
5.38,89.6917,2573.946,408.747,-19.211,2.49,13.836,-56.006
5.4,89.6618,2581.895,407.627,-19.211,4.269,13.333,-55.971
5.42,89.6354,2589.84,406.48,-20.456,4.091,14.087,-57.373
5.44,89.6097,2597.725,405.392,-14.586,8.183,14.591,-54.395
5.46,89.5805,2605.847,404.276,-17.077,6.759,14.842,-55.813
5.48,89.553,2614.032,403.124,-19.033,8.36,14.591,-57.598
5.5,89.5268,2622.171,401.978,-19.033,7.293,14.591,-57.267
5.52,89.5003,2630.292,400.895,-14.942,5.692,15.094,-54.188
5.54,89.4766,2638.163,399.781,-16.721,7.115,14.842,-55.663
5.56,89.4517,2645.927,398.685,-17.077,6.048,13.584,-54.843
5.58,89.4271,2653.576,397.581,-17.61,3.38,14.339,-55.16
5.6,89.3959,2661.674,396.49,-16.721,5.336,13.836,-54.549
5.62,89.374,2669.392,395.376,-18.144,4.269,14.339,-55.717
5.64,89.3511,2676.873,394.229,-19.567,9.606,12.578,-57.366
5.66,89.3183,2684.964,393.189,-13.341,2.668,14.339,-51.966
5.68,89.2979,2692.563,392.056,-19.567,7.115,12.83,-56.656
5.7,89.2748,2699.967,390.991,-16.009,1.423,13.584,-53.244
5.72,89.2475,2707.55,389.867,-19.389,6.937,12.327,-56.2
5.74,89.227,2714.736,388.766,-16.187,9.428,13.081,-55.048
5.76,89.2044,2721.758,387.692,-15.298,7.115,13.333,-53.704
5.78,89.1774,2729.008,386.572,-18.678,7.293,12.83,-56.004
5.8,89.1533,2736.23,385.496,-16.899,3.38,13.081,-53.836
5.82,89.1289,2743.456,384.451,-14.408,1.245,13.836,-52.215
5.84,89.1018,2750.907,383.33,-19.211,6.048,12.83,-56.08
5.86,89.0758,2758.478,382.283,-14.231,4.981,13.333,-52.327
5.88,89.0539,2765.808,381.193,-16.187,9.428,12.075,-54.487
5.9,89.0241,2773.581,380.154,-14.231,1.779,13.584,-51.954
5.92,88.9995,2781.307,379.084,-16.365,5.336,12.578,-53.519
5.94,88.9762,2788.894,378.006,-17.432,4.625,12.075,-53.904
5.96,88.9536,2796.296,376.976,-13.163,3.913,13.584,-51.516
5.98,88.9298,2803.644,375.923,-15.12,6.582,12.075,-52.639
6,88.9068,2810.874,374.831,-17.432,7.115,12.075,-54.568
6.02,88.8797,2818.352,373.798,-13.697,4.447,13.081,-51.655
6.04,88.855,2825.843,372.704,-16.365,9.606,12.075,-54.692
6.06,88.8338,2833.055,371.638,-16.365,5.692,12.075,-53.319
6.08,88.808,2840.423,370.61,-13.697,4.091,12.83,-51.408
6.1,88.7858,2847.616,369.572,-14.586,5.336,12.075,-51.873
6.12,88.7664,2854.433,368.511,-16.187,5.87,11.823,-53.087
6.14,88.7374,2861.731,367.486,-14.231,2.846,12.327,-51.241
6.16,88.716,2868.809,366.424,-16.899,4.803,11.32,-53.099
6.18,88.6993,2875.317,365.422,-12.452,6.048,11.32,-50.082
6.2,88.6717,2882.251,364.404,-13.697,3.38,12.327,-50.934
6.22,88.6487,2889.173,363.358,-15.654,3.558,12.075,-52.287
6.24,88.6269,2895.99,362.314,-15.12,6.582,11.32,-52.202
6.26,88.6009,2903.066,361.275,-14.231,6.404,12.075,-51.931
6.28,88.5762,2910.263,360.242,-14.586,5.692,11.572,-51.67
6.3,88.5584,2916.993,359.232,-12.807,3.558,12.578,-50.5
6.32,88.5288,2924.298,358.224,-13.519,2.846,11.823,-50.384
6.34,88.5079,2931.386,357.209,-13.341,6.226,11.32,-50.771
6.36,88.486,2938.365,356.2,-12.274,6.937,11.572,-50.44
6.38,88.4605,2945.549,355.192,-13.341,4.447,11.572,-50.412
6.4,88.4397,2952.53,354.157,-13.875,7.471,11.572,-51.751
6.42,88.4162,2959.551,353.176,-12.274,2.312,11.32,-49.057
6.44,88.398,2966.176,352.143,-14.764,7.649,10.063,-51.636
6.46,88.3737,2972.971,351.146,-13.875,1.067,10.817,-49.826
6.48,88.352,2979.694,350.114,-15.298,7.115,9.559,-51.592
6.5,88.3274,2986.602,349.111,-14.408,3.024,10.314,-50.176
6.52,88.3061,2993.398,348.116,-13.697,3.736,10.314,-49.748
6.54,88.2864,2999.968,347.101,-14.053,5.87,10.566,-50.736
6.56,88.264,3006.574,346.122,-12.807,0,10.817,-48.964
6.58,88.2386,3013.466,345.145,-12.274,4.447,10.314,-48.837
6.6,88.2191,3020.111,344.14,-12.807,7.115,10.566,-50.264
6.62,88.2013,3026.401,343.142,-12.985,6.226,10.314,-49.913
6.64,88.1759,3033.034,342.143,-12.985,6.226,10.314,-49.913
6.66,88.1576,3039.375,341.155,-12.452,4.981,10.817,-49.43
6.68,88.1394,3045.454,340.142,-13.875,6.759,10.063,-50.624
6.7,88.1169,3051.679,339.154,-11.74,6.404,10.817,-49.4
6.72,88.0884,3058.534,338.211,-9.25,3.202,11.32,-47.165
6.74,88.0712,3064.991,337.246,-10.851,3.38,11.32,-48.241
6.76,88.0553,3071.004,336.235,-14.586,5.336,9.811,-50.571
6.78,88.0262,3077.739,335.271,-11.74,4.625,9.811,-48.184
6.8,88.007,3084.266,334.301,-12.096,5.692,9.308,-48.49
6.82,87.9876,3090.637,333.329,-12.985,4.803,8.805,-48.608
6.84,87.9657,3097.083,332.366,-11.918,5.87,8.805,-48.138
6.86,87.9479,3103.259,331.41,-12.274,1.245,9.559,-47.807
6.88,87.9224,3109.841,330.447,-12.985,3.024,8.805,-48.178
6.9,87.9022,3116.337,329.462,-13.341,5.514,9.056,-49.241
6.92,87.8849,3122.518,328.521,-10.139,4.091,10.063,-47.059
6.94,87.8608,3128.997,327.552,-10.851,5.87,10.566,-48.443
6.96,87.8442,3135.106,326.571,-12.807,3.558,10.314,-49.025
6.98,87.8189,3141.632,325.587,-13.341,4.447,9.559,-49.204
7,87.7995,3148.02,324.641,-10.317,4.625,10.063,-47.336
7.02,87.7795,3154.344,323.677,-11.207,4.803,10.314,-48.17
7.04,87.7609,3160.49,322.717,-11.562,5.514,9.308,-48.034
7.06,87.7415,3166.56,321.753,-12.985,2.312,9.056,-48.199
7.08,87.7176,3172.949,320.82,-11.029,2.135,9.056,-46.629
7.1,87.6968,3179.344,319.869,-10.495,6.937,8.805,-47.556
7.12,87.6805,3185.378,318.937,-11.029,3.558,8.553,-46.603
7.14,87.6619,3191.288,317.999,-11.384,4.625,8.05,-46.89
7.16,87.6446,3196.992,317.058,-11.562,5.514,7.547,-47.068
7.18,87.6244,3202.771,316.094,-12.985,5.514,7.547,-48.199
7.2,87.6025,3208.76,315.158,-11.384,4.269,8.05,-46.782
7.22,87.5852,3214.548,314.224,-10.851,4.447,8.553,-46.715
7.24,87.5649,3220.415,313.27,-12.274,4.447,8.302,-47.671
7.26,87.5445,3226.369,312.318,-12.274,3.736,8.553,-47.619
7.28,87.5227,3232.516,311.395,-10.495,3.38,8.553,-46.154
7.3,87.506,3238.402,310.481,-9.606,3.558,8.805,-45.707
7.32,87.4881,3244.17,309.533,-11.562,4.447,8.805,-47.398
7.34,87.4582,3250.846,308.62,-9.428,3.736,8.805,-45.63
7.36,87.4439,3256.986,307.687,-11.029,4.269,8.302,-46.649
7.38,87.4247,3263.076,306.768,-9.961,4.981,8.05,-45.942
7.4,87.4043,3269.228,305.864,-9.428,2.668,8.553,-45.206
7.42,87.3847,3275.362,304.924,-12.63,1.601,7.547,-46.999
7.44,87.3658,3281.422,303.995,-10.673,5.692,7.547,-46.457
7.46,87.3491,3287.232,303.068,-11.384,3.202,7.798,-46.366
7.48,87.3308,3292.971,302.139,-11.029,4.981,7.547,-46.462
7.5,87.3126,3298.637,301.23,-9.961,3.913,7.798,-45.442
7.52,87.2933,3304.347,300.295,-11.918,4.447,7.044,-46.741
7.54,87.2714,3310.312,299.397,-9.961,1.067,7.798,-44.896
7.56,87.2527,3316.221,298.495,-10.139,2.668,7.547,-45.118
7.58,87.235,3322.006,297.575,-10.495,5.514,7.044,-45.99
7.6,87.2188,3327.557,296.692,-9.072,1.957,7.547,-44.162
7.62,87.197,3333.384,295.787,-9.961,3.202,7.798,-45.25
7.64,87.1798,3339.063,294.878,-9.606,4.625,7.798,-45.409
7.66,87.1639,3344.517,293.974,-9.428,4.447,7.798,-45.218
7.68,87.1488,3349.709,293.067,-10.139,4.091,7.295,-45.344
7.7,87.1306,3354.941,292.154,-10.317,4.625,7.295,-45.656
7.72,87.113,3360.169,291.261,-9.428,4.091,7.044,-44.659
7.74,87.0933,3365.573,290.351,-10.673,3.558,7.044,-45.473
7.76,87.0774,3370.823,289.448,-10.317,3.558,7.044,-45.189
7.78,87.0588,3376.161,288.531,-11.562,2.312,6.792,-45.808
7.8,87.0425,3381.39,287.643,-9.961,2.135,6.792,-44.444
7.82,87.0242,3386.705,286.742,-11.029,2.49,6.037,-45.017
7.84,87.0041,3392.247,285.857,-9.606,3.202,6.541,-44.254
7.86,86.9915,3397.352,284.946,-11.207,4.091,6.037,-45.571
7.88,86.9696,3402.871,284.065,-9.783,3.38,5.786,-44.058
7.9,86.9496,3408.585,283.182,-9.961,1.779,6.289,-44.114
7.92,86.9295,3414.47,282.305,-9.25,2.135,6.792,-43.873
7.94,86.9157,3419.979,281.422,-9.428,1.957,7.044,-44.13
7.96,86.9007,3425.26,280.543,-9.606,2.49,6.289,-43.948
7.98,86.8821,3430.647,279.678,-8.183,3.558,6.541,-43.263
8,86.8595,3436.468,278.805,-9.428,2.312,6.037,-43.632
8.02,86.845,3441.974,277.942,-8.183,3.202,6.541,-43.154
8.04,86.8288,3447.35,277.071,-8.716,3.736,6.289,-43.579
8.06,86.8102,3452.826,276.206,-9.25,1.779,5.786,-43.254
8.08,86.7975,3457.891,275.346,-8.183,3.202,6.289,-43.005
8.1,86.7788,3463.104,274.459,-9.606,4.625,5.786,-44.33
8.12,86.7632,3468.194,273.59,-8.716,3.736,6.037,-43.442
8.14,86.7445,3473.434,272.735,-8.183,2.135,6.289,-42.739
8.16,86.7268,3478.729,271.861,-9.25,3.202,6.037,-43.701
8.18,86.708,3484.16,270.982,-9.606,3.913,5.534,-43.956
8.2,86.6934,3489.354,270.123,-8.538,3.558,5.534,-42.979
8.22,86.6828,3494.018,269.261,-8.894,2.846,5.534,-43.055
8.24,86.6641,3498.908,268.405,-8.538,2.49,5.786,-42.81
8.26,86.6458,3503.972,267.547,-8.36,3.736,5.534,-42.9
8.28,86.6291,3509.047,266.697,-8.183,2.49,5.786,-42.526
8.3,86.6142,3513.986,265.832,-9.25,2.846,5.283,-43.226
8.32,86.5959,3519.1,264.984,-7.827,2.49,6.037,-42.394
8.34,86.5832,3523.885,264.143,-8.005,1.601,5.534,-42.062
8.36,86.5694,3528.496,263.302,-7.649,2.312,5.786,-42.066
8.38,86.5541,3533.089,262.435,-9.25,3.913,4.78,-43.323
8.4,86.538,3537.736,261.596,-7.293,2.312,6.037,-41.946
8.42,86.5202,3542.583,260.729,-8.894,3.558,5.786,-43.391
8.44,86.5058,3547.314,259.881,-7.649,3.024,6.037,-42.403
8.46,86.4907,3552.013,259.022,-8.716,3.736,5.031,-42.935
8.48,86.4693,3557.214,258.188,-7.293,1.957,5.786,-41.713
8.5,86.4581,3561.988,257.348,-7.471,2.49,5.786,-41.972
8.52,86.4379,3567.158,256.512,-7.827,1.779,5.283,-41.809
8.54,86.4258,3571.983,255.657,-8.183,3.202,5.786,-42.721
8.56,86.4082,3576.977,254.79,-9.072,4.091,5.031,-43.351
8.58,86.3904,3582.137,253.943,-8.005,3.38,5.283,-42.369
8.6,86.3763,3587.117,253.123,-6.582,1.957,5.534,-41.019
8.62,86.3602,3592.123,252.284,-8.005,2.312,5.031,-41.933
8.64,86.3482,3596.792,251.46,-7.115,1.423,5.283,-41.176
8.66,86.3266,3601.987,250.636,-7.115,0.712,5.534,-41.242
8.68,86.3148,3606.807,249.804,-7.649,1.245,5.283,-41.579
8.7,86.2967,3611.839,248.966,-8.183,2.49,4.528,-41.878
8.72,86.2817,3616.788,248.123,-8.36,3.38,4.277,-42.18
8.74,86.2661,3621.722,247.293,-7.649,2.668,4.528,-41.481
8.76,86.2525,3626.463,246.458,-7.649,2.668,5.031,-41.736
8.78,86.239,3631.04,245.627,-7.293,2.668,5.283,-41.592
8.8,86.2233,3635.659,244.799,-6.937,2.312,5.534,-41.371
8.82,86.2095,3640.16,243.972,-7.293,2.312,5.031,-41.357
8.84,86.1946,3644.664,243.153,-6.404,1.423,5.786,-40.947
8.86,86.183,3648.887,242.3,-8.36,3.736,5.031,-42.648
8.88,86.1625,3653.631,241.463,-7.649,3.024,5.031,-41.842
8.9,86.1519,3657.981,240.627,-7.827,3.202,4.528,-41.792
8.92,86.1325,3662.748,239.775,-8.716,4.091,4.025,-42.636
8.94,86.1186,3667.413,238.951,-6.937,2.668,5.031,-41.176
8.96,86.1075,3671.744,238.119,-7.649,2.668,4.78,-41.606
8.98,86.0961,3675.829,237.293,-7.471,2.846,4.277,-41.267
9,86.0764,3680.408,236.487,-6.048,1.067,5.283,-40.301
9.02,86.0611,3685.034,235.677,-7.293,0.178,4.025,-40.532
9.04,86.0498,3689.372,234.861,-6.759,0.712,5.283,-40.808
9.06,86.0329,3693.938,234.054,-6.759,1.423,4.277,-40.324
9.08,86.0185,3698.484,233.247,-6.759,0.712,4.528,-40.367
9.1,86.008,3702.692,232.432,-7.293,1.957,4.025,-40.757
9.12,85.9899,3707.256,231.61,-6.937,2.312,5.031,-41.076
9.14,85.9799,3711.428,230.778,-7.827,3.558,3.773,-41.589
9.16,85.9715,3715.149,229.944,-6.937,4.091,5.031,-41.696
9.18,85.9517,3719.449,229.113,-6.937,4.803,4.025,-41.549
9.2,85.9409,3723.492,228.28,-6.937,3.736,5.283,-41.686
9.22,85.9278,3727.503,227.433,-7.471,5.336,4.277,-42.328
9.24,85.9112,3731.804,226.608,-7.115,3.913,4.025,-41.263
9.26,85.8966,3736.177,225.777,-7.471,3.913,4.025,-41.545
9.28,85.8826,3740.559,224.956,-7.471,2.846,3.773,-41.041
9.3,85.867,3745.091,224.132,-6.937,2.668,5.031,-41.176
9.32,85.8528,3749.628,223.315,-6.759,2.49,4.78,-40.845
9.34,85.8403,3754.026,222.503,-7.115,2.135,4.025,-40.649
9.36,85.8304,3758.079,221.703,-6.404,1.067,4.277,-39.974
9.38,85.8142,3762.376,220.903,-5.87,0.889,5.031,-39.982
9.4,85.8027,3766.49,220.102,-6.404,0.712,4.528,-40.075
9.42,85.7856,3770.918,219.304,-6.404,-0.356,4.277,-39.909
9.44,85.7714,3775.368,218.499,-6.048,-0.356,5.283,-40.238
9.46,85.761,3779.517,217.708,-5.514,0.534,4.78,-39.517
9.48,85.7449,3783.887,216.909,-6.404,1.779,4.025,-39.97
9.5,85.7375,3787.711,216.107,-6.937,2.312,3.019,-40.111
9.52,85.7223,3791.738,215.314,-6.582,1.601,3.019,-39.616
9.54,85.7079,3795.865,214.504,-7.471,2.49,2.767,-40.547
9.56,85.6988,3799.635,213.713,-6.226,1.601,3.522,-39.53
9.58,85.6815,3803.804,212.904,-7.115,2.846,3.019,-40.437
9.6,85.6714,3807.695,212.112,-6.759,1.779,2.516,-39.629
9.62,85.6569,3811.738,211.317,-6.404,1.779,3.522,-39.722
9.64,85.6449,3815.692,210.497,-7.471,3.558,3.019,-41.008
9.66,85.6348,3819.406,209.692,-6.582,2.668,3.773,-40.242
9.68,85.6196,3823.362,208.9,-5.692,2.846,3.773,-39.599
9.7,85.6094,3827.1,208.106,-6.048,1.779,4.025,-39.679
9.72,85.5951,3831.002,207.313,-6.048,1.779,4.025,-39.679
9.74,85.5784,3835.259,206.521,-5.336,2.846,4.277,-39.607
9.76,85.5719,3838.943,205.724,-5.514,2.312,4.78,-39.855
9.78,85.5563,3842.921,204.929,-5.692,2.49,4.277,-39.743
9.8,85.5469,3846.616,204.134,-5.87,1.957,4.277,-39.722
9.82,85.5373,3850.096,203.343,-5.692,1.779,4.277,-39.539
9.84,85.5258,3853.555,202.565,-5.159,1.601,4.025,-38.936
9.86,85.5141,3857.023,201.785,-5.336,1.067,4.025,-38.969
9.88,85.5016,3860.571,200.996,-6.048,1.423,3.773,-39.469
9.9,85.4875,3864.325,200.217,-5.514,1.601,3.522,-38.936
9.92,85.4797,3867.724,199.435,-5.87,0.889,3.522,-39.103
9.94,85.4657,3871.348,198.656,-5.336,1.067,4.025,-38.969
9.96,85.4526,3875.099,197.88,-5.514,0.889,3.522,-38.803
9.98,85.4443,3878.55,197.1,-5.87,0.889,3.27,-38.978
10,85.4301,3882.246,196.318,-5.87,1.601,3.27,-39.108
10.02,85.4212,3885.7,195.53,-6.404,2.135,2.516,-39.404
10.04,85.4052,3889.561,194.748,-5.87,1.601,3.27,-39.108
10.06,85.3895,3893.734,193.975,-5.336,1.423,3.27,-38.619
10.08,85.3858,3897.162,193.197,-5.87,1.245,3.019,-38.917
10.1,85.3721,3900.797,192.411,-6.048,2.49,2.767,-39.302
10.12,85.3567,3904.756,191.639,-5.159,2.312,3.019,-38.609
10.14,85.3499,3908.255,190.865,-5.514,1.601,3.019,-38.687
10.16,85.3308,3912.418,190.085,-5.87,1.957,2.767,-38.978
10.18,85.3233,3916.146,189.301,-5.87,2.312,3.019,-39.194
10.2,85.3109,3919.933,188.523,-5.514,2.312,3.019,-38.898
10.22,85.299,3923.714,187.748,-5.692,2.135,2.516,-38.779
10.24,85.2901,3927.234,186.976,-5.514,1.601,2.767,-38.574
10.26,85.2735,3931.201,186.196,-5.514,2.312,3.27,-39.015
10.28,85.2697,3934.442,185.422,-5.336,1.779,3.27,-38.707
10.3,85.2561,3937.903,184.646,-5.336,2.135,3.27,-38.813
10.32,85.2457,3941.289,183.873,-5.159,2.312,3.019,-38.609
10.34,85.2324,3944.857,183.101,-5.336,1.423,3.27,-38.619
10.36,85.2247,3948.104,182.322,-5.336,2.49,3.27,-38.936
10.38,85.2124,3951.478,181.552,-4.981,2.135,3.27,-38.529
10.4,85.1996,3955.004,180.783,-4.981,1.779,3.27,-38.418
10.42,85.1973,3957.765,180.009,-5.336,2.135,3.019,-38.692
10.44,85.1795,3961.194,179.238,-5.336,1.779,3.019,-38.584
10.46,85.1743,3964.13,178.484,-4.447,1.957,2.516,-37.671
10.48,85.1614,3967.308,177.719,-5.159,1.601,2.767,-38.269
10.5,85.1479,3970.755,176.951,-5.336,1.423,2.767,-38.377
10.52,85.1415,3973.817,176.188,-5.159,1.601,2.516,-38.158
10.54,85.1291,3977.068,175.423,-5.336,1.423,2.516,-38.269
10.56,85.112,3980.887,174.665,-4.803,1.245,2.767,-37.881
10.58,85.1076,3984.106,173.902,-5.159,1.601,2.516,-38.158
10.6,85.0983,3987.236,173.148,-4.625,1.067,2.767,-37.694
10.62,85.092,3990.026,172.389,-4.981,0.712,2.767,-37.942
10.64,85.0774,3993.245,171.622,-5.336,1.423,2.767,-38.377
10.66,85.0704,3996.186,170.864,-4.625,1.779,2.767,-37.876
10.68,85.0597,3999.207,170.117,-3.913,1.423,3.019,-37.343
10.7,85.0493,4002.276,169.361,-4.625,1.067,3.019,-37.825
10.72,85.0369,4005.558,168.605,-4.447,1.957,2.767,-37.791
10.74,85.028,4008.72,167.851,-4.803,0.889,2.516,-37.694
10.76,85.0167,4011.994,167.182,-1.245,0.178,0,-33.458
10.78,85.0123,4014.77,166.481,-1.245,-0.534,2.516,-35.057
10.8,84.9994,4017.853,169.385,209.9,40.913,-121.253,245.834
10.82,85.6944,4020.842,167.244,728.247,0,-312.944,792.64
10.84,85.2498,4023.813,164.971,43.937,9.072,6.541,45.338
10.86,85.0461,4026.767,163.166,-22.769,-3.913,15.597,27.875
10.88,84.9582,4029.703,161.841,-14.942,11.384,-10.817,21.677
10.9,84.9057,4036.692,160.805,-4.091,-2.312,-12.578,13.427
10.92,84.882,4044.284,159.97,-112.777,-56.566,-41.005,132.664
10.94,84.8634,4051.916,158.985,-0.534,-4.447,6.289,7.721
10.96,84.8419,4059.779,158.035,-4.447,1.601,-3.27,5.748
10.98,84.8131,4068.417,156.981,-32.019,-3.558,47.294,57.224
11,84.7782,4078.194,155.536,-26.149,12.63,21.131,35.914
11.02,84.7361,4089.5,153.806,-154.401,51.23,54.086,171.434
11.04,84.6727,4103.872,151.691,-212.568,35.398,48.803,220.953
11.06,84.705,4113.177,149.372,-90.008,32.019,14.842,96.68
11.08,84.7992,4111.52,146.932,-92.854,-6.048,-10.314,93.621
11.1,84.8066,4119.722,144.309,-64.215,-14.053,-7.798,66.196
11.12,84.7425,4120.24,141.579,-189.266,-65.816,-18.364,201.223
11.14,84.635,4129.069,138.952,-74.354,-36.999,-6.289,83.289
11.16,84.5564,4142.535,136.227,-21.879,-20.812,-79.745,85.271
11.18,84.4389,4163.244,133.595,-47.494,-47.494,-69.683,96.784
11.2,84.3528,4187.321,130.903,-44.826,-93.566,-180.119,207.862
11.22,84.5065,4200.885,128.22,-43.225,-86.984,-99.367,138.955
11.24,84.6417,4192.106,125.541,-39.845,-48.74,-34.213,71.65
11.26,84.6616,4202.987,122.802,-192.824,-37.711,-59.872,205.396
11.28,84.6888,4187.424,120.079,-67.061,-8.716,-1.509,67.642
11.3,84.7163,4170.719,117.288,-189.088,9.428,-11.069,189.646
11.32,84.7405,4153.579,114.521,-126.652,4.269,-16.1,127.742
11.34,84.7502,4137.584,111.751,-147.108,24.014,-19.873,150.374
11.36,84.7223,4126.039,108.949,-21.524,2.668,-8.805,23.407
11.38,84.7038,4117.7,106.085,-57.1,4.447,-23.898,62.059
11.4,84.6767,4112.998,103.22,-20.278,-22.057,-5.786,30.516
11.42,84.6315,4113.071,100.425,-40.735,-36.466,-87.795,103.427
11.44,84.606,4115.591,97.541,-49.985,-47.85,-49.055,84.82
11.46,84.5638,4121.646,94.725,-40.201,-54.076,-39.244,77.977
11.48,84.6199,4116.45,91.859,-112.777,-60.48,-42.766,134.927
11.5,84.6393,4116.398,89.014,-84.316,-41.624,-35.219,100.41
11.52,84.635,4117.022,86.205,-107.796,-9.961,-22.138,110.496
11.54,84.5582,4124.455,83.334,-8.36,3.024,20.628,22.462
11.56,84.5694,4121.267,80.504,-279.096,53.898,43.017,287.489
11.58,84.5673,4127.776,77.728,-61.725,27.572,28.93,73.533
11.6,84.6193,4129.067,74.909,-86.45,60.124,19.37,107.069
11.62,84.6309,4129.327,72.08,-112.955,47.85,7.798,122.92
11.64,84.6029,4132.093,69.228,-71.33,19.389,-13.584,75.157
11.66,84.5801,4136.526,66.392,-115.801,53.187,-23.144,129.516
11.68,84.6008,4138.595,63.456,-37.355,6.404,-18.112,42.006
11.7,84.6267,4138.157,60.544,-25.437,14.408,-38.741,48.533
11.72,84.6258,4137.869,57.618,-12.096,-9.606,-23.144,27.825
11.74,84.6105,4138.941,54.698,-31.129,-27.572,-15.094,44.239
11.76,84.598,4140.928,51.744,-46.783,-54.254,-64.652,96.498
11.78,84.5945,4142.901,48.825,-45.893,-32.019,-37.986,67.634
11.8,84.6017,4143.919,45.749,-70.619,-47.85,-40.753,94.538
11.82,84.6305,4142.25,42.699,-150.132,-55.855,-81.506,179.729
11.84,84.6362,4140.271,41.23,-128.608,-11.207,-77.984,150.822
11.86,84.5788,4143.477,39.875,-17.432,13.163,-22.389,31.28
11.88,84.5196,4151.246,36.575,-67.773,59.946,-63.645,110.623
11.9,84.4811,4161.084,33.98,-49.451,45.893,-66.161,94.493
11.92,84.4533,4171.667,31.824,-26.504,49.273,-66.412,86.839
11.94,84.4568,4180.092,29.755,-8.894,25.971,-55.595,62.003
11.96,84.447,4187.736,27.846,-20.634,43.047,-104.147,114.566
11.98,84.4511,4193.431,26.07,-9.072,37.889,-64.903,75.699
12,84.482,4195.109,24.48,-10.495,21.524,-46.539,52.338
12.02,84.5079,4193.772,23.159,-21.879,21.168,-36.98,47.899
12.04,84.5401,4189.348,22.166,-22.413,15.298,-21.886,34.862
12.06,84.5607,4183.345,21.717,-30.062,6.937,-20.628,37.113
12.08,84.5726,4176.819,20.997,-27.038,3.202,-14.339,30.772
12.1,84.5801,4170.336,19.358,-41.091,-3.024,-27.42,49.492
12.12,84.5895,4163.819,17.591,-17.255,-5.87,-15.094,23.664
12.14,84.5784,4159.126,16.395,-23.302,-19.389,-30.942,43.317
12.16,84.5805,4154.942,16.157,-15.476,-9.072,-23.898,29.882
12.18,84.5746,4151.94,16.721,-19.745,-16.187,-28.175,38.023
12.2,84.5737,4149.574,18.333,-13.875,-10.673,-19.37,26.108
12.22,84.5707,4147.969,20.7,-9.783,-5.87,-13.333,17.548
12.24,84.5678,4147.032,21.712,-9.783,-4.803,-12.83,16.834
12.26,84.5689,4146.346,21.402,-9.961,-2.846,-12.075,15.91
12.28,84.5699,4145.88,20.834,-8.538,-2.49,-11.32,14.396
12.3,84.5674,4145.913,19.988,-8.716,-0.889,-9.811,13.154
12.32,84.5647,4146.387,18.839,-9.606,0,-9.308,13.375
12.34,84.5622,4147.209,17.422,-8.716,-0.178,-8.05,11.866
12.36,84.5657,4147.797,15.871,-12.985,-0.534,-10.063,16.436
12.38,84.567,4148.357,14.574,-18.678,-1.601,-14.842,23.91
12.4,84.5669,4149.002,13.393,-20.101,-0.889,-16.352,25.927
12.42,84.5596,4150.318,12.476,-17.788,0,-11.823,21.359
12.44,84.5587,4151.636,11.963,-15.298,0.712,-8.302,17.42
12.46,84.5569,4153.012,11.69,-16.365,0,-7.295,17.918
12.48,84.5549,4154.421,11.78,-14.053,0.178,-6.037,15.296
12.5,84.5534,4155.803,11.34,-14.231,-0.356,-5.031,15.098
12.52,84.551,4157.205,10.717,-15.476,-0.889,-4.528,16.149
12.54,84.5517,4158.345,10.035,-16.009,-0.712,-3.522,16.408
12.56,84.5476,4159.645,10.064,-14.408,0.534,-3.019,14.731
12.58,84.5474,4160.74,9.959,-10.139,-0.534,-2.767,10.524
12.6,84.5441,4161.897,9.858,-5.514,-0.889,-3.019,6.349
12.62,84.5423,4162.975,9.259,-7.115,-2.49,-2.767,8.03
12.64,84.5384,4164.147,8.529,-13.875,-4.269,-1.258,14.571
12.66,84.5393,4164.976,8.009,-10.317,-1.779,0.755,10.497
12.68,84.5446,4165.124,7.69,-11.384,-0.356,-3.27,11.85
12.7,84.5402,4165.525,7.159,-13.519,-1.067,-2.264,13.749
12.72,84.5396,4165.819,6.337,-11.918,0.889,-0.252,11.954
12.74,84.5387,4166.043,5.496,-9.25,0.712,-2.767,9.681
12.76,84.538,4166.19,4.775,-8.005,0.534,-3.773,8.866
12.78,84.532,4166.733,4.068,-10.851,1.245,-5.283,12.133
12.8,84.5389,4166.505,3.378,-8.538,1.423,-3.27,9.253
12.82,84.5349,4166.567,2.643,-8.36,1.957,-3.522,9.281
12.84,84.5284,4167.095,1.61,-8.183,2.135,-4.528,9.592
12.86,84.5222,4167.993,0.537,-8.36,2.668,-6.037,10.652
12.88,84.5203,4168.845,-0.019,-7.115,2.846,-4.78,9.032
12.9,84.5226,4169.285,-0.001,-7.649,3.024,-5.283,9.775
12.92,84.5195,4169.846,0.377,-10.673,5.336,-7.044,13.857
12.94,84.5265,4169.637,1.023,-20.101,10.495,-10.817,25.124
12.96,84.5209,4169.86,1.693,-24.903,11.029,-14.087,30.664
12.98,84.5215,4169.935,2.46,-13.875,6.404,-7.044,16.827
13,84.5242,4169.696,3.23,-17.788,13.519,-2.516,22.484
13.02,84.5247,4169.389,3.732,-16.365,4.625,-3.773,17.42
13.04,84.5268,4168.897,4.005,-28.995,18.322,-9.559,35.606
13.06,84.5282,4168.316,4.004,-39.134,23.125,-11.32,46.844
13.08,84.5217,4168.352,3.756,-23.658,12.63,-10.314,28.733
13.1,84.5221,4168.327,3.356,-15.654,12.807,-3.019,20.449
13.12,84.523,4168.211,2.826,-22.591,13.341,-8.805,27.674
13.14,84.5204,4168.326,2.209,-26.504,7.293,-13.584,30.663
13.16,84.5215,4168.325,1.619,-14.764,7.649,-3.773,17.051
13.18,84.5122,4169.116,1.003,-12.452,3.913,-2.013,13.206
13.2,84.5173,4169.346,0.402,-12.63,0.534,-1.509,12.731
13.22,84.5248,4168.883,-0.248,-9.606,2.49,-1.761,10.078
13.24,84.5186,4169.019,-0.893,-12.807,1.067,-2.767,13.146
13.26,84.5246,4168.616,-1.506,-12.096,0.356,-6.792,13.877
13.28,84.5299,4167.815,-2.143,-9.428,-0.889,-3.019,9.939
13.3,84.5298,4167.148,-2.815,-10.495,0.178,-3.019,10.922
13.32,84.5315,4166.451,-3.484,-12.452,2.135,-9.559,15.842
13.34,84.5323,4165.814,-4.136,-6.759,1.067,-4.025,7.939
13.36,84.5329,4165.247,-4.778,-8.894,1.779,-6.792,11.331
13.38,84.5293,4165.114,-5.441,-9.961,0.356,-5.786,11.525
13.4,84.5316,4164.842,-6.137,-8.538,2.135,-6.289,10.817
13.42,84.5272,4165.031,-6.882,-7.471,1.779,-6.037,9.769
13.44,84.5263,4165.312,-7.554,-9.961,0,-6.289,11.781
13.46,84.5242,4165.768,-8.214,-7.471,2.846,-6.037,10.018
13.48,84.5261,4166.02,-8.892,-6.404,0,-11.572,13.226
13.5,84.5258,4166.292,-9.616,1.245,-6.582,-17.358,18.605
13.52,84.5239,4166.704,-10.305,-7.649,-0.178,-9.559,12.244
13.54,84.5324,4166.341,-10.971,-8.538,1.067,-13.081,15.658
13.56,84.5315,4166.122,-11.636,-4.625,0,-12.075,12.93
13.58,84.5341,4165.725,-12.255,-3.558,-0.712,-10.566,11.171
13.6,84.535,4165.324,-12.885,-7.115,2.49,-12.578,14.664
13.62,84.5355,4164.955,-13.527,-12.096,-0.356,-11.823,16.918
13.64,84.5363,4164.592,-14.132,-6.226,-2.668,-11.823,13.626
13.66,84.5401,4163.982,-14.707,-12.274,-4.803,-13.333,18.748
13.68,84.5402,4163.477,-15.316,-12.985,-5.159,-12.83,18.969
13.7,84.5414,4162.976,-15.971,-3.202,-0.712,-6.037,6.871
13.72,84.5454,4162.235,-16.579,-7.115,1.779,-13.836,15.66
13.74,84.5467,4161.529,-17.191,-6.404,1.779,-9.559,11.643
13.76,84.5476,4160.894,-17.796,-9.961,-5.336,-15.345,19.057
13.78,84.5577,4159.537,-18.388,-7.827,-7.471,-13.081,16.976
13.8,84.5586,4158.358,-18.968,-5.159,-12.274,-12.83,18.489
13.82,84.5555,4157.688,-19.631,-0.534,-6.226,-7.295,9.606
13.84,84.5575,4157.011,-20.266,-8.005,-10.851,-17.609,22.179
13.86,84.5545,4156.766,-20.825,-0.889,-3.736,-8.05,8.919
13.88,84.5553,4156.568,-21.34,-2.49,-6.048,-16.1,17.378
13.9,84.5528,4156.687,-21.832,-2.49,-3.558,-13.333,14.022
13.92,84.5538,4156.779,-22.354,-2.846,-4.269,-15.345,16.18
13.94,84.5544,4156.866,-22.86,-1.957,-3.38,-14.339,14.861
13.96,84.5502,4157.356,-23.442,0.534,-5.159,-12.578,13.605
13.98,84.5515,4157.713,-23.94,-0.356,-1.067,-11.32,11.376
14,84.5492,4158.258,-24.465,-4.803,-0.534,-14.591,15.37
14.02,84.5487,4158.799,-24.996,-6.937,0.178,-14.842,16.384
14.04,84.5485,4159.293,-25.524,-5.514,1.245,-10.817,12.205
14.06,84.5462,4159.927,-26.049,-6.582,-0.534,-9.811,11.826
14.08,84.5522,4159.955,-26.618,-7.115,-1.067,-13.333,15.15
14.1,84.5564,4159.617,-27.124,-7.293,1.957,-12.578,14.671
14.12,84.5626,4158.786,-27.65,-14.942,2.135,-17.609,23.193
14.14,84.5621,4158.12,-28.143,-15.298,3.558,-16.352,22.673
14.16,84.5699,4156.884,-28.593,-11.384,2.135,-9.056,14.703
14.18,84.5704,4155.801,-29.051,-13.163,4.269,-8.05,16.009
14.2,84.5746,4154.543,-29.351,-8.183,2.846,-5.786,10.418
14.22,84.5808,4152.969,-29.708,-13.341,5.159,-8.302,16.538
14.24,84.5835,4151.451,-30.105,-15.654,5.692,-7.798,18.392
14.26,84.5832,4150.24,-30.467,-16.187,5.87,-7.044,18.604
14.28,84.585,4149.126,-30.799,-22.591,-4.091,-5.534,23.616
14.3,84.5882,4147.989,-31.204,-7.115,2.49,-0.503,7.555
14.32,84.5908,4146.89,-31.601,-5.87,4.091,-3.019,7.766
14.34,84.5921,4145.938,-31.993,-17.255,6.226,-8.302,20.134
14.36,84.594,4145.063,-32.355,-8.005,3.38,-3.522,9.376
14.38,84.5935,4144.472,-32.773,-13.163,4.269,-5.031,14.724
14.4,84.5962,4143.841,-33.119,-17.255,4.447,-9.056,19.988
14.42,84.6022,4142.9,-33.484,-8.005,3.024,-5.031,9.926
14.44,84.6025,4142.185,-33.769,-7.115,3.202,-4.78,9.15
14.46,84.603,4141.642,-34.085,-8.005,4.447,-2.767,9.566
14.48,84.6077,4140.888,-34.41,-14.942,10.317,-17.609,25.294
14.5,84.6156,4139.671,-34.704,-12.63,4.803,-10.063,16.847
14.52,84.6147,4138.826,-35.009,-9.428,-5.159,-7.295,12.989
14.54,84.6158,4138.131,-35.301,-3.202,0.356,-5.283,6.188
14.56,84.6163,4137.607,-35.689,-12.63,0.178,-12.075,17.474
14.58,84.6168,4137.229,-36.059,-11.918,4.803,-11.823,17.461
14.6,84.6195,4136.778,-36.447,-10.495,3.38,-12.327,16.538
14.62,84.6257,4135.972,-36.813,-11.562,3.38,-16.1,20.108
14.64,84.6251,4135.43,-37.168,-8.36,-0.889,-18.867,20.656
14.66,84.6275,4134.864,-37.534,-8.894,-5.692,-12.327,16.231
14.68,84.632,4134.088,-37.92,-14.942,-1.067,-19.37,24.487
14.7,84.6335,4133.398,-38.316,-7.649,3.736,-17.861,19.786
14.72,84.6347,4132.803,-38.656,-6.937,-0.889,-12.578,14.392
14.74,84.6376,4132.132,-39.029,-10.673,-2.846,-16.1,19.525
14.76,84.6397,4131.471,-39.394,-5.336,3.913,-14.591,16.021
14.78,84.641,4130.886,-39.695,-7.649,-0.178,-16.855,18.51
14.8,84.6479,4129.881,-40.096,-13.519,-3.202,-17.609,22.43
14.82,84.6522,4128.743,-40.449,-14.942,0,-19.119,24.265
14.84,84.6555,4127.583,-40.75,-11.562,2.668,-18.616,22.076
14.86,84.6564,4126.615,-41.015,-7.115,0.356,-14.087,15.786
14.88,84.6604,4125.54,-41.223,-4.981,0.356,-11.069,12.143
14.9,84.6627,4124.534,-41.366,-12.807,-3.913,-13.836,19.256
14.92,84.6663,4123.47,-41.485,-13.341,3.38,-11.572,17.981
14.94,84.6707,4122.291,-41.587,-16.721,3.913,-10.817,20.296
14.96,84.6748,4121.048,-41.663,-18.5,5.692,-9.811,21.7
14.98,84.6744,4120.135,-41.73,-31.129,5.87,-15.597,35.309
15,84.6798,4119.006,-41.851,-19.389,5.159,-9.559,22.225
15.02,84.6809,4118.074,-41.981,-24.014,-1.601,-8.05,25.378
15.04,84.6831,4117.211,-42.123,-26.326,1.779,-13.081,29.451
15.06,84.6839,4116.529,-42.276,-8.005,3.38,-6.037,10.581
15.08,84.6903,4115.521,-42.392,-22.769,15.654,-9.811,29.321
15.1,84.6934,4114.513,-42.553,-19.923,6.404,-11.572,23.913
15.12,84.6986,4113.326,-42.704,-32.73,-9.25,-14.842,37.11
15.14,84.6976,4112.525,-42.946,-2.668,-13.341,-12.075,18.191
15.16,84.6991,4111.832,-43.212,-16.009,0.712,-10.566,19.195
15.18,84.7024,4111.082,-43.547,-19.923,0.356,-16.352,25.776
15.2,84.6983,4110.907,-43.88,-13.163,3.202,-12.327,18.316
15.22,84.703,4110.469,-44.209,-23.48,3.202,-22.138,32.429
15.24,84.7034,4110.17,-44.588,-47.494,-4.447,-37.986,60.979
15.26,84.7095,4109.49,-45.021,-22.235,-3.736,-24.402,33.223
15.28,84.7041,4109.477,-45.405,-15.298,-1.423,-25.659,29.907
15.3,84.7101,4109.042,-45.811,-8.183,-3.913,-23.647,25.327
15.32,84.7129,4108.511,-46.198,-10.139,-2.312,-21.131,23.552
15.34,84.7144,4108.014,-46.611,-27.038,-6.048,-35.219,44.811
15.36,84.714,4107.703,-47.022,-21.702,2.49,-27.672,35.255
15.38,84.723,4106.739,-47.421,-17.61,4.091,-23.395,29.567
15.4,84.7227,4106.012,-47.76,-18.855,3.913,-23.647,30.496
15.42,84.7262,4105.165,-48.08,-10.673,4.269,-19.37,22.524
15.44,84.726,4104.538,-48.367,-34.509,5.336,-33.961,48.71
15.46,84.7343,4103.365,-48.574,-17.788,6.759,-22.641,29.575
15.48,84.7415,4101.826,-48.777,-8.894,0.356,-18.112,20.182
15.5,84.7405,4100.677,-49.011,-26.149,-3.736,-26.917,37.713
15.52,84.7464,4099.287,-49.282,-31.663,0,-31.194,44.448
15.54,84.7512,4097.785,-49.478,-17.432,2.135,-19.37,26.147
15.56,84.7576,4096.063,-49.632,-19.033,0.889,-19.622,27.351
15.58,84.7611,4094.409,-49.778,-23.48,2.846,-17.609,29.488
15.6,84.7649,4092.798,-49.973,-18.144,2.846,-19.119,26.511
15.62,84.7663,4091.436,-50.221,-38.067,8.538,-32.703,50.906
15.64,84.7692,4090.171,-50.563,-30.774,4.447,-16.352,35.131
15.66,84.7742,4088.813,-50.868,-31.841,-2.668,-23.144,39.454
15.68,84.7774,4087.525,-51.143,-31.485,-8.005,-27.42,42.512
15.7,84.783,4086.098,-51.428,-12.452,0,-12.83,17.879
15.72,84.7807,4085.242,-51.738,-30.062,5.87,-29.181,42.305
15.74,84.7848,4084.312,-51.996,-26.86,-2.312,-26.917,38.097
15.76,84.7874,4083.45,-52.264,-23.125,3.913,-17.106,29.029
15.78,84.7843,4083.138,-52.538,-24.726,6.226,-22.641,34.099
15.8,84.7898,4082.551,-52.779,-30.951,11.384,-26.666,42.41
15.82,84.7882,4082.326,-53.027,-41.98,2.846,-29.181,51.205
15.84,84.7904,4082.077,-53.248,-9.783,-3.024,-24.402,26.463
15.86,84.789,4082.11,-53.466,-16.721,2.135,-20.88,26.835
15.88,84.7904,4082.13,-53.654,-14.764,3.736,-15.094,21.442
15.9,84.7874,4082.506,-53.84,-13.519,12.096,-22.892,29.208
15.92,84.7919,4082.536,-54.105,-36.466,2.312,-45.533,58.381
15.94,84.794,4082.459,-54.366,-31.663,8.538,-28.175,43.235
15.96,84.7953,4082.349,-54.667,-29.884,4.981,-25.659,39.702
15.98,84.8033,4081.619,-54.963,-16.187,8.36,-19.622,26.776
16,84.813,4080.227,-55.259,-9.961,2.135,-21.383,23.686
16.02,84.8216,4078.359,-55.535,-24.726,8.005,-15.597,30.31
16.04,84.8289,4076.209,-55.711,-21.346,12.452,-14.339,28.571
16.06,84.8358,4073.866,-55.837,-19.745,9.072,-17.609,27.969
16.08,84.8399,4071.608,-55.974,-19.211,6.404,-17.861,27.002
16.1,84.8446,4069.395,-56.189,-26.326,7.471,-15.848,31.624
16.12,84.845,4067.606,-56.36,-19.745,4.091,-12.83,23.9
16.14,84.8544,4065.421,-56.527,-16.899,-3.024,-13.333,21.737
16.16,84.8634,4062.943,-56.725,-24.192,6.759,-13.081,28.321
16.18,84.869,4060.521,-56.952,-14.586,5.692,-9.308,18.215
16.2,84.8742,4058.196,-57.155,-13.341,-2.312,-10.817,17.33
16.22,84.8755,4056.301,-57.314,-21.702,0.356,-14.339,26.013
16.24,84.8807,4054.45,-57.484,-21.702,2.846,-13.836,25.894
16.26,84.8898,4052.307,-57.655,-31.663,8.183,-22.892,39.919
16.28,84.891,4050.605,-57.901,-18.322,3.024,-10.566,21.365
16.3,84.8976,4048.814,-58.065,-10.139,4.091,-9.056,14.197
16.32,84.8985,4047.445,-58.304,-23.302,8.36,-17.861,30.527
16.34,84.9051,4045.951,-58.486,-23.48,7.471,-27.169,36.678
16.36,84.9098,4044.508,-58.661,-27.038,11.384,-16.603,33.709
16.38,84.9128,4043.252,-58.773,-33.62,4.091,-19.119,38.891
16.4,84.9133,4042.364,-58.922,-23.302,3.736,-11.823,26.396
16.42,84.9147,4041.705,-59.018,-45.716,8.716,-15.094,48.926
16.44,84.9113,4041.646,-59.117,-19.567,-0.712,-6.792,20.725
16.46,84.9086,4042.026,-59.162,-39.668,4.447,-11.069,41.422
16.48,84.9138,4042.084,-59.248,-36.644,1.067,-4.528,36.938
16.5,84.9185,4041.889,-59.324,-45.893,4.269,-10.566,47.287
16.52,84.9207,4041.677,-59.387,-16.721,1.779,-7.295,18.33
16.54,84.9195,4041.727,-59.46,-20.278,-0.712,-1.509,20.347
16.56,84.92,4041.84,-59.549,-23.48,-4.981,-7.044,25.015
16.58,84.9247,4041.632,-59.681,-17.61,-8.716,-2.767,19.843
16.6,84.9357,4040.604,-59.763,-25.971,-7.827,-2.516,27.241
16.62,84.9451,4039.007,-59.845,-23.48,-6.048,-8.05,25.548
16.64,84.9555,4036.835,-59.92,-36.644,-2.846,-9.811,38.041
16.66,84.9587,4034.796,-59.992,-20.99,-0.356,-8.553,22.669
16.68,84.9596,4033.081,-60.107,-28.817,-3.558,-13.081,31.846
16.7,84.9628,4031.467,-60.322,-25.437,-5.514,-17.106,31.146
16.72,84.9706,4029.541,-60.555,-16.543,-4.803,-13.333,21.783
16.74,84.9706,4028.029,-60.73,-22.057,-1.067,-10.063,24.268
16.76,84.9753,4026.475,-60.915,-23.836,2.846,-13.081,27.338
16.78,84.9805,4024.847,-61.067,-22.947,1.245,-11.823,25.844
16.8,84.9824,4023.44,-61.13,-31.663,3.558,-13.333,34.539
16.82,84.9831,4022.339,-61.186,-30.951,4.625,-6.792,32.024
16.84,84.9823,4021.625,-61.191,-12.63,-0.178,-2.264,12.832
16.86,84.9853,4020.913,-61.159,-34.865,-1.423,-12.327,37.007
16.88,84.9878,4020.243,-61.082,-21.879,1.245,-7.547,23.178
16.9,84.99,4019.628,-60.965,-26.149,1.245,-4.025,26.486
16.92,85.0029,4018.139,-60.766,-25.259,-0.712,-10.314,27.293
16.94,85.0056,4016.773,-60.563,-31.841,-5.159,-2.767,32.374
16.96,85.0123,4015.18,-60.334,-56.388,-5.87,-15.094,58.668
16.98,85.0144,4013.791,-60.045,-32.73,-3.558,-16.603,36.873
17,85.0217,4012.13,-59.799,-21.168,-8.716,-16.855,28.428
17.02,85.0207,4010.945,-59.581,-27.394,-9.961,-18.867,34.722
17.04,85.0157,4010.527,-59.361,-17.255,-6.582,-9.308,20.68
17.06,85.0146,4010.409,-59.199,-30.062,-11.207,-17.861,36.72
17.08,85.0217,4009.851,-59.082,-14.231,-7.115,-11.069,19.382
17.1,85.0304,4008.761,-58.992,-17.966,-8.36,-17.861,26.677
17.12,85.0293,4008.052,-58.939,-15.654,-2.135,-32.955,36.546
17.14,85.0301,4007.506,-58.876,-17.255,-5.159,-13.081,22.259
17.16,85.0413,4006.207,-58.877,-28.995,-8.716,-25.911,39.85
17.18,85.0497,4004.504,-58.915,-29.173,-8.183,-30.942,43.306
17.2,85.0508,4003.076,-58.962,-19.211,-6.048,-22.389,30.115
17.22,85.0571,4001.453,-59.037,-21.168,-3.024,-21.886,30.598
17.24,85.0607,3999.893,-59.116,-26.149,-4.803,-25.408,36.775
17.26,85.0675,3998.124,-59.214,-15.831,-1.957,-14.087,21.282
17.28,85.0769,3995.96,-59.371,-16.543,-3.024,-9.056,19.101
17.3,85.0807,3993.946,-59.53,-40.201,-7.115,-26.917,48.901
17.32,85.0904,3991.56,-59.704,-25.615,-2.846,-19.873,32.545
17.34,85.0889,3989.837,-59.845,-23.836,-3.558,-14.339,28.043
17.36,85.0942,3988.097,-60.045,-20.634,-3.913,-9.811,23.181
17.38,85.0953,3986.715,-60.268,-16.721,-2.135,-7.547,18.469
17.4,85.0977,3985.52,-60.441,-17.432,-2.135,-6.792,18.83
17.42,85.0998,3984.515,-60.654,-22.413,-4.269,-5.534,23.478
17.44,85.104,3983.494,-60.843,-25.081,-7.293,-5.031,26.6
17.46,85.1061,3982.634,-60.991,-20.99,-5.336,-3.773,21.984
17.48,85.1094,3981.793,-61.068,-19.745,-5.514,-3.019,20.721
17.5,85.1087,3981.318,-61.159,-18.322,-5.514,-3.019,19.37
17.52,85.1154,3980.502,-61.28,-16.365,-5.336,-3.27,17.521
17.54,85.1182,3979.734,-61.396,-17.255,-6.226,-3.773,18.727
17.56,85.1223,3978.877,-61.402,-17.432,-6.404,-3.27,18.857
17.58,85.128,3977.816,-61.339,-21.168,-9.072,-3.27,23.261
17.6,85.1264,3977.188,-61.303,-20.812,-7.649,-5.534,22.853
17.62,85.1298,3976.504,-61.383,-23.125,-8.538,-9.056,26.261
17.64,85.1348,3975.618,-61.485,-28.995,-10.139,-17.106,35.159
17.66,85.1389,3974.647,-61.632,-21.702,-7.471,-18.112,29.238
17.68,85.1461,3973.332,-61.781,-17.966,-6.226,-9.559,21.282
17.7,85.161,3971.052,-61.851,-20.99,-7.115,-11.823,25.12
17.72,85.1649,3968.907,-61.946,-21.879,-6.226,-18.364,29.235
17.74,85.1687,3966.899,-62.024,-32.019,-5.336,-23.898,40.309
17.76,85.1733,3964.95,-62.041,-34.509,-5.692,-27.672,44.598
17.78,85.1748,3963.315,-62.06,-34.331,-5.514,-32.452,47.562
17.8,85.176,3961.988,-62.112,-18.855,-2.846,-19.119,27.003
17.82,85.1776,3960.893,-62.16,-14.942,-2.135,-15.597,21.704
17.84,85.1812,3959.82,-62.192,-20.278,-0.712,-22.389,30.216
17.86,85.1829,3958.93,-62.183,-20.99,-0.712,-21.383,29.972
17.88,85.1874,3957.958,-62.184,-17.61,0.534,-17.106,24.557
17.9,85.1894,3957.112,-62.216,-17.966,0.534,-17.861,25.339
17.92,85.1915,3956.373,-62.3,-20.101,3.38,-17.106,26.61
17.94,85.1946,3955.63,-62.533,-19.923,2.846,-16.352,25.93
17.96,85.1978,3954.875,-62.784,-18.678,3.736,-14.591,23.994
17.98,85.1979,3954.365,-63.135,-17.432,3.913,-14.591,23.067
18,85.2025,3953.674,-63.439,-18.678,4.447,-15.848,24.896
18.02,85.2036,3953.116,-63.748,-17.61,4.803,-13.333,22.604
18.04,85.2025,3952.863,-63.912,-15.831,5.514,-11.572,20.37
18.06,85.209,3952.206,-63.969,-19.211,6.048,-12.83,23.88
18.08,85.2144,3951.289,-63.865,-17.788,5.336,-11.572,21.882
18.1,85.2207,3950.076,-63.745,-19.745,5.159,-11.32,23.337
18.12,85.2276,3948.559,-63.611,-22.769,5.692,-11.823,26.28
18.14,85.2337,3946.851,-63.346,-28.639,6.582,-14.842,32.921
18.16,85.2389,3945.065,-63.082,-40.201,8.183,-22.892,46.98
18.18,85.2415,3943.444,-62.875,-13.341,6.226,-7.547,16.544
18.2,85.2443,3941.96,-62.655,-25.615,7.471,-12.578,29.498
18.22,85.2496,3940.375,-62.429,-27.572,6.582,-12.578,31.012
18.24,85.2561,3938.61,-62.315,-29.173,6.404,-13.081,32.606
18.26,85.2606,3936.878,-62.236,-25.971,4.625,-10.314,28.324
18.28,85.2654,3935.145,-62.309,-22.591,3.38,-11.823,25.721
18.3,85.2718,3933.286,-62.538,-32.197,1.245,-18.112,36.963
18.32,85.2744,3931.648,-62.758,-25.971,0,-17.861,31.52
18.34,85.2772,3930.185,-63.065,-21.346,-0.356,-13.584,25.304
18.36,85.2848,3928.472,-63.301,-19.389,-0.534,-13.333,23.537
18.38,85.29,3926.75,-63.487,-18.322,-0.534,-14.087,23.118
18.4,85.2891,3925.549,-63.611,-19.745,-0.889,-17.609,26.472
18.42,85.3004,3923.745,-63.757,-18.678,-0.889,-18.112,26.033
18.44,85.3042,3922.079,-63.896,-17.966,-0.178,-16.603,24.464
18.46,85.3109,3920.286,-64.029,-22.235,-0.534,-20.377,30.164
18.48,85.314,3918.689,-64.154,-26.504,-1.957,-21.383,34.111
18.5,85.3183,3917.162,-64.294,-20.99,-1.423,-17.106,27.115
18.52,85.3249,3915.494,-64.347,-29.884,-3.558,-23.144,37.965
18.54,85.3301,3913.833,-64.237,-20.278,-0.712,-16.1,25.902
18.56,85.3277,3912.833,-64.001,-30.418,-4.447,-25.408,39.882
18.58,85.3277,3912.183,-63.526,-37.533,-3.024,-31.194,48.897
18.6,85.3339,3911.292,-62.895,-33.797,2.135,-25.659,42.488
18.62,85.3437,3909.887,-62.266,-23.658,4.091,-16.352,29.049
18.64,85.3447,3908.784,-61.933,-18.144,3.913,-10.566,21.358
18.66,85.3469,3907.833,-61.829,-26.682,6.759,-11.572,29.859
18.68,85.3516,3906.8,-61.858,-22.947,5.87,-9.811,25.637
18.7,85.3499,3906.233,-61.948,-33.086,9.25,-12.075,36.415
18.72,85.3574,3905.279,-62.208,-22.769,8.538,-3.773,24.608
18.74,85.3553,3904.801,-62.371,-24.548,8.894,-4.528,26.499
18.76,85.3564,3904.442,-62.409,-25.793,9.428,-7.295,28.414
18.78,85.3594,3904.017,-62.563,-32.197,11.918,-7.547,35.151
18.8,85.3656,3903.26,-62.705,-31.485,12.274,-7.798,34.681
18.82,85.3708,3902.29,-62.847,-36.644,11.029,-7.798,39.054
18.84,85.3761,3901.124,-63.042,-30.774,9.428,-5.534,32.658
18.86,85.3803,3899.892,-63.294,-23.836,6.048,-3.773,24.879
18.88,85.3864,3898.432,-63.562,-20.99,3.558,-4.528,21.766
18.9,85.3951,3896.56,-63.851,-32.374,1.067,-9.559,33.773
18.92,85.4069,3894.091,-64.106,-31.485,-0.889,-12.83,34.01
18.94,85.4183,3891.143,-64.366,-21.879,-0.889,-6.037,22.715
18.96,85.4257,3888.148,-64.618,-28.817,-2.846,-12.327,31.471
18.98,85.4384,3884.689,-64.78,-32.197,-3.736,-13.584,35.144
19,85.4396,3881.835,-64.912,-32.374,-6.759,-17.358,37.351
19.02,85.4412,3879.473,-65.048,-24.903,-10.673,-16.855,31.909
19.04,85.4346,3878.253,-65.044,-22.057,-9.25,-14.087,27.759
19.06,85.4364,3877.289,-65.001,-22.057,-11.029,-16.603,29.729
19.08,85.4283,3877.387,-64.888,-17.966,-11.918,-16.855,27.366
19.1,85.4276,3877.756,-64.784,-12.63,-12.985,-16.1,24.235
19.12,85.4254,3878.459,-64.796,-12.096,-16.009,-20.628,28.777
19.14,85.4199,3879.702,-64.807,-11.562,-15.831,-19.37,27.56
19.16,85.4271,3880.303,-64.779,-14.408,-17.966,-24.402,33.553
19.18,85.4298,3880.708,-64.692,-20.812,-24.726,-29.936,44.053
19.2,85.4276,3881.347,-64.569,-24.37,-29.706,-36.477,52.98
19.22,85.4333,3881.49,-64.432,-22.235,-24.014,-29.433,44.016
19.24,85.4469,3880.525,-64.338,-35.576,-29.173,-39.747,60.799
19.26,85.4548,3879.087,-64.282,-40.557,-25.615,-36.98,60.568
19.28,85.4724,3876.423,-64.348,-29.528,-14.586,-27.672,43.016
19.3,85.488,3872.893,-64.466,-39.668,-16.187,-38.489,57.593
19.32,85.4914,3869.694,-64.624,-41.446,-10.851,-43.52,61.07
19.34,85.4991,3866.435,-64.721,-36.644,-7.471,-42.263,56.433
19.36,85.5012,3863.625,-64.829,-30.418,-3.38,-37.231,48.196
19.38,85.4984,3861.635,-65.024,-16.543,-2.668,-30.439,34.747
19.4,85.4987,3860.102,-65.279,-29.173,-9.606,-52.325,60.673
19.42,85.5067,3858.31,-65.483,-8.894,-3.913,-27.42,29.091
19.44,85.512,3856.526,-65.802,-14.764,-6.937,-39.747,42.964
19.46,85.5152,3854.933,-66.061,-7.293,-9.072,-31.194,33.295
19.48,85.5206,3853.328,-66.311,-4.803,-6.937,-26.666,27.969
19.5,85.527,3851.626,-66.522,-7.649,-10.851,-32.955,35.528
19.52,85.5266,3850.422,-66.741,-2.668,-6.582,-31.948,32.728
19.54,85.5101,3851.008,-67.007,-4.269,-7.115,-35.973,36.918
19.56,85.5016,3852.441,-67.232,0.889,-6.937,-32.955,33.689
19.58,85.4786,3855.793,-67.364,0,-13.875,-32.452,35.293
19.6,85.463,3860.117,-67.416,-6.048,-22.057,-35.219,41.994
19.62,85.4716,3863.154,-67.403,-4.091,-20.812,-25.911,33.485
19.64,85.5074,3862.717,-67.433,-10.317,-24.903,-25.659,37.216
19.66,85.5349,3860.001,-67.426,-7.649,-21.524,-15.597,27.659
19.68,85.5534,3856.116,-67.386,-22.235,-19.745,-14.591,33.123
19.7,85.561,3852.188,-67.369,-37.533,-21.524,-12.327,44.988
19.72,85.5727,3847.906,-67.35,-18.322,-4.447,-10.314,21.491
19.74,85.5662,3844.912,-67.335,-26.149,7.649,-7.547,28.27
19.76,85.5568,3843.291,-67.279,-24.37,9.072,-1.761,26.063
19.78,85.5726,3840.716,-67.186,-38.956,-1.601,-2.013,39.041
19.8,85.5776,3838.254,-67.031,-16.365,0.356,-11.069,19.76
19.82,85.5845,3835.742,-66.887,-36.999,-8.538,-20.88,43.334
19.84,85.5969,3832.742,-66.732,-32.908,-0.178,-19.622,38.314
19.86,85.6079,3829.466,-66.641,-26.149,-0.534,-11.32,28.499
19.88,85.6163,3826.186,-66.474,-41.091,-2.312,-21.634,46.496
19.9,85.623,3823.075,-66.382,-46.249,-9.606,-19.873,51.247
19.92,85.6257,3820.465,-66.418,-41.446,-4.091,-24.653,48.398
19.94,85.6329,3817.916,-66.558,-49.807,-5.692,-27.169,57.02
19.96,85.6376,3815.638,-66.773,-42.869,-4.803,-27.672,51.25
19.98,85.6335,3814.347,-67.017,-35.576,-2.135,-23.898,42.911
20,85.6387,3813.103,-67.277,-53.898,-3.024,-32.955,63.247
20.02,85.6433,3811.952,-67.503,-32.374,-0.356,-34.967,47.654
20.04,85.6356,3811.911,-67.715,-28.817,-4.269,-18.616,34.571
20.06,85.6412,3811.671,-67.824,-41.446,-8.005,-22.641,47.901
20.08,85.6357,3812.186,-67.935,-35.576,-11.029,-25.659,45.23
20.1,85.6395,3812.53,-67.972,-37.889,-9.428,-18.112,43.041
20.12,85.6544,3811.762,-67.965,-33.62,-6.582,-16.855,38.18
20.14,85.6559,3811.159,-67.968,-23.302,-1.601,-8.302,24.789
20.16,85.654,3810.98,-67.919,-34.865,13.163,-13.081,39.496
20.18,85.6506,3811.272,-67.857,-31.841,14.764,-2.264,35.17
20.2,85.6523,3811.515,-67.756,-32.374,7.471,-2.767,33.34
20.22,85.6561,3811.52,-67.624,-35.043,3.024,-11.32,36.95
20.24,85.6636,3810.981,-67.536,-41.802,5.514,-7.044,42.749
20.26,85.6694,3810.122,-67.567,-17.255,5.87,-5.283,18.976
20.28,85.6866,3808.008,-67.661,-21.879,6.226,-7.547,23.967
20.3,85.6959,3805.493,-67.838,-30.24,5.336,-11.32,32.727
20.32,85.7023,3802.904,-68.116,-31.129,9.072,-13.333,35.058
20.34,85.7017,3800.864,-68.373,-14.053,9.428,-9.056,19.193
20.36,85.7084,3798.676,-68.625,-19.567,6.759,-12.578,24.223
20.38,85.7189,3796.062,-68.891,-21.879,1.601,-12.578,25.288
20.4,85.7289,3793.133,-69.097,-18.5,4.625,-8.805,21.004
20.42,85.7329,3790.46,-69.214,-19.389,4.803,-11.32,22.96
20.44,85.743,3787.518,-69.286,-61.547,2.135,-31.697,69.262
20.46,85.7413,3785.356,-69.342,-15.831,-1.957,-16.1,22.664
20.48,85.7423,3783.644,-69.44,-15.476,3.736,-12.578,20.289
20.5,85.7434,3782.319,-69.558,-26.326,2.49,-19.119,32.631
20.52,85.7486,3780.973,-69.699,-15.12,3.024,-16.352,22.475
20.54,85.7556,3779.453,-69.82,-29.706,3.736,-17.106,34.482
20.56,85.7542,3778.501,-69.77,-17.61,5.514,-15.597,24.162
20.58,85.7552,3777.82,-69.59,-31.485,4.447,-22.138,38.745
20.6,85.7548,3777.487,-69.113,-9.783,5.87,-13.584,17.74
20.62,85.7499,3777.825,-68.45,-28.461,5.692,-31.445,42.793
20.64,85.753,3778.031,-67.772,-9.783,6.937,-12.075,17.019
20.66,85.756,3778.116,-67.349,-19.567,3.913,-22.641,30.179
20.68,85.7585,3778.122,-67.102,-16.721,1.779,-29.936,34.335
20.7,85.7643,3777.76,-66.999,-12.807,0.356,-22.138,25.578
20.72,85.7741,3776.736,-66.848,-11.562,-4.091,-22.138,25.308
20.74,85.7754,3775.864,-66.739,-13.697,-4.091,-24.402,28.28
20.76,85.7816,3774.694,-66.542,-22.591,-9.783,-29.433,38.371
20.78,85.7846,3773.546,-66.277,-13.875,-5.336,-19.37,24.417
20.8,85.7835,3772.771,-66.153,-9.428,-4.447,-15.597,18.76
20.82,85.7869,3771.929,-66.046,-18.855,-6.048,-24.653,31.621
20.84,85.7888,3771.145,-65.944,-25.615,-6.759,-25.659,36.881
20.86,85.7987,3769.733,-65.952,-19.745,-7.293,-19.622,28.776
20.88,85.7946,3768.982,-66.022,-19.389,-6.937,-14.591,25.238
20.9,85.8049,3767.569,-66.135,-20.278,-6.404,-13.836,25.37
20.92,85.8184,3765.314,-66.28,-26.326,-6.048,-14.087,30.465
20.94,85.8263,3762.829,-66.374,-26.149,-4.803,-14.339,30.206
20.96,85.8311,3760.429,-66.495,-33.62,-7.293,-15.345,37.669
20.98,85.8351,3758.194,-66.637,-31.841,-8.005,-12.075,34.982
21,85.8321,3756.7,-66.695,-35.576,-6.048,-17.861,40.265
21.02,85.835,3755.348,-66.769,-26.682,0,-14.591,30.411
21.04,85.8398,3753.956,-66.884,-35.043,-2.668,-16.1,38.656
21.06,85.8431,3752.657,-66.879,-32.374,-2.135,-12.83,34.889
21.08,85.8497,3751.17,-66.912,-35.398,0.178,-19.622,40.473
21.1,85.8581,3749.361,-66.863,-31.307,2.135,-20.125,37.279
21.12,85.8627,3747.611,-66.761,-30.596,1.779,-12.578,33.128
21.14,85.8747,3745.287,-66.809,-28.461,3.913,-13.081,31.567
21.16,85.8837,3742.739,-66.826,-28.639,3.736,-20.125,35.202
21.18,85.8842,3740.728,-66.717,-17.788,4.981,-11.823,21.932
21.2,85.8863,3739.051,-66.478,-18.144,4.269,-13.836,23.213
21.22,85.8942,3737.168,-66.219,-20.812,3.024,-15.848,26.334
21.24,85.9025,3735.078,-65.858,-20.101,2.312,-14.591,24.945
21.26,85.9113,3732.78,-65.506,-27.927,-0.178,-19.119,33.845
21.28,85.9192,3730.381,-65.235,-27.927,-2.312,-17.358,32.963
21.3,85.9197,3728.535,-65.157,-22.413,-1.067,-13.081,25.973
21.32,85.9238,3726.863,-65.08,-22.413,-0.356,-14.087,26.475
21.34,85.9268,3725.429,-65.171,-23.302,-0.889,-12.578,26.495
21.36,85.927,3724.431,-65.249,-25.615,-1.779,-13.333,28.932
21.38,85.935,3723.142,-65.391,-31.485,-3.024,-16.352,35.607
21.4,85.9399,3721.855,-65.549,-26.326,-1.067,-12.327,29.089
21.42,85.9387,3721.092,-65.749,-22.591,-0.178,-10.817,25.048
21.44,85.9345,3721.017,-65.972,-23.836,-1.067,-10.314,25.994
21.46,85.9358,3721.044,-66.215,-28.105,1.067,-11.32,30.318
21.48,85.9456,3720.423,-66.32,-26.504,2.668,-11.572,29.043
21.5,85.9509,3719.61,-66.372,-24.37,3.38,-11.823,27.297
21.52,85.9556,3718.678,-66.416,-27.75,3.202,-14.339,31.399
21.54,85.9623,3717.462,-66.471,-27.216,4.091,-13.584,30.692
21.56,85.969,3716.007,-66.567,-24.903,3.558,-12.327,28.014
21.58,85.9728,3714.59,-66.648,-27.394,4.269,-13.584,30.874
21.6,85.9729,3713.517,-66.728,-25.971,4.269,-14.339,29.972
21.62,85.9784,3712.28,-66.776,-23.125,4.269,-10.817,25.884
21.64,85.9784,3711.366,-66.819,-27.216,4.803,-13.333,30.684
21.66,85.9797,3710.618,-66.93,-27.394,6.048,-15.094,31.856
21.68,85.9805,3710.045,-67.13,-25.259,5.692,-12.327,28.677
21.7,85.9864,3709.181,-67.329,-25.081,7.293,-11.32,28.468
21.72,85.982,3708.938,-67.487,-25.615,7.827,-11.32,29.078
21.74,85.9829,3708.772,-67.669,-26.149,9.783,-11.572,30.222
21.76,85.9883,3708.281,-67.775,-24.548,9.961,-10.314,28.429
21.78,85.9988,3707.067,-67.835,-24.726,10.851,-13.836,30.34
21.8,86.0071,3705.429,-67.889,-23.48,14.942,-7.547,28.837
21.82,86.0125,3703.671,-67.881,-19.923,14.942,-5.534,25.511
21.84,86.0146,3702.102,-67.851,-25.615,15.654,-9.559,31.505
21.86,86.0227,3700.193,-67.803,-21.524,16.187,-7.295,27.902
21.88,86.027,3698.323,-67.862,-27.75,17.432,-11.823,34.838
21.9,86.0313,3696.498,-67.895,-18.678,14.053,-8.553,24.889
21.92,86.0364,3694.653,-67.998,-21.702,19.211,-8.05,30.08
21.94,86.0362,3693.24,-68.26,-24.192,16.365,-12.83,31.901
21.96,86.0401,3691.862,-68.576,-23.302,19.389,-11.823,32.538
21.98,86.0457,3690.375,-68.814,-24.726,16.899,-14.087,33.096
22,86.0489,3689.004,-69.095,-22.413,17.788,-13.836,31.784
22.02,86.0536,3687.604,-69.296,-21.879,16.899,-10.817,29.687
22.04,86.0618,3685.884,-69.4,-21.346,17.077,-9.308,28.877
22.06,86.0647,3684.338,-69.469,-17.966,13.341,-7.547,23.616
22.08,86.0718,3682.599,-69.435,-18.144,17.077,-5.283,25.47
22.1,86.077,3680.857,-69.394,-24.014,16.543,-7.547,30.121
22.12,86.0761,3679.635,-69.344,-29.528,19.211,-7.547,36.027
22.14,86.0863,3677.918,-69.303,-27.394,17.432,-8.05,33.453
22.16,86.0899,3676.334,-69.274,-29.35,17.966,-9.559,35.716
22.18,86.0867,3675.452,-69.287,-39.668,24.726,-12.327,48.341
22.2,86.0844,3675.081,-69.321,-47.85,26.504,-16.352,57.092
22.22,86.0893,3674.535,-69.321,-45.538,21.346,-12.327,51.781
22.24,86.0829,3674.785,-69.472,-47.85,16.187,-8.05,51.151
22.26,86.0847,3675,-69.641,-47.672,1.779,-3.27,47.817
22.28,86.0962,3674.354,-69.858,-32.73,2.49,-0.755,32.833
22.3,86.1084,3672.892,-70.117,-47.85,-5.514,-1.258,48.183
22.32,86.1074,3671.864,-70.387,-47.672,-17.077,-9.559,51.533
22.34,86.1276,3669.403,-70.718,-62.614,-25.615,-10.314,68.433
22.36,86.1354,3666.774,-71.046,-37.889,-17.61,-4.528,42.026
22.38,86.1441,3663.937,-71.338,-22.769,-16.365,-7.295,28.973
22.4,86.144,3661.69,-71.595,-18.5,-11.384,-3.773,22.047
22.42,86.1468,3659.71,-71.812,-20.101,-11.562,-6.541,24.094
22.44,86.1536,3657.635,-71.989,-23.125,-17.432,-9.559,30.496
22.46,86.154,3656.025,-72.044,-3.38,-41.802,-23.898,48.27
22.48,86.1488,3655.291,-72.025,-19.567,-21.702,-15.597,33.122
22.5,86.15,3654.767,-72.128,-17.788,-22.769,-14.339,32.256
22.52,86.1562,3653.979,-72.247,-24.726,-26.86,-18.867,41.095
22.54,86.1604,3653.134,-72.37,-23.48,-22.413,-15.848,36.123
22.56,86.166,3652.112,-72.521,-26.682,-20.278,-17.861,37.976
22.58,86.1739,3650.741,-72.722,-14.231,-11.74,-11.572,21.777
22.6,86.1812,3649.119,-72.97,-14.586,-9.606,-12.075,21.233
22.62,86.1866,3647.453,-73.18,-16.009,-7.471,-12.83,21.834
22.64,86.1998,3645.082,-73.444,-18.678,-6.582,-18.112,26.837
22.66,86.2131,3642.108,-73.657,-15.831,-3.38,-13.333,20.972
22.68,86.2292,3638.408,-73.83,-17.966,-2.668,-15.597,23.941
22.7,86.2358,3634.9,-73.909,-23.658,-3.024,-19.119,30.568
22.72,86.235,3632.21,-73.972,-24.548,-2.135,-20.88,32.297
22.74,86.237,3630,-73.91,-20.456,4.803,-34.464,40.365
22.76,86.2366,3628.409,-73.735,-16.187,1.245,-21.886,27.25
22.78,86.2344,3627.502,-73.579,-15.831,0.889,-19.37,25.033
22.8,86.2397,3626.534,-73.445,-15.12,1.245,-20.377,25.404
22.82,86.2432,3625.66,-73.337,-16.543,1.601,-20.377,26.295
22.84,86.2465,3624.877,-73.228,-21.524,1.601,-25.156,33.146
22.86,86.2517,3623.996,-73.154,-27.927,1.245,-29.684,40.776
22.88,86.2626,3622.537,-73.121,-30.596,2.846,-28.93,42.203
22.9,86.2735,3620.587,-73.119,-24.37,1.957,-19.873,31.507
22.92,86.2801,3618.569,-73.149,-23.48,0.356,-17.358,29.202
22.94,86.2933,3615.948,-73.164,-25.615,0.356,-18.112,31.374
22.96,86.3007,3613.304,-73.144,-22.947,-0.178,-14.842,27.329
22.98,86.2966,3611.617,-73.079,-23.125,-0.356,-13.081,26.571
23,86.3067,3609.559,-73.019,-30.418,-1.601,-14.591,33.774
23.02,86.3105,3607.718,-72.943,-28.461,-1.779,-12.327,31.067
23.04,86.3063,3606.733,-72.898,-22.769,-1.423,-8.553,24.364
23.06,86.3069,3606.071,-72.91,-18.144,-1.423,-5.786,19.097
23.08,86.3017,3606.171,-72.956,-19.923,-0.712,-3.773,20.289
23.1,86.3032,3606.332,-73.056,-25.081,-2.668,-5.534,25.823
23.12,86.3027,3606.696,-73.141,-17.788,-1.779,-3.019,18.13
23.14,86.3079,3606.727,-73.2,-16.187,-2.312,-1.509,16.421
23.16,86.3059,3607.064,-73.31,-19.211,-3.558,-0.252,19.539
23.18,86.31,3607.131,-73.417,-22.947,-8.005,-3.27,24.522
23.2,86.3203,3606.424,-73.466,-19.745,-7.293,0,21.049
23.22,86.3231,3605.676,-73.421,-30.951,2.49,1.761,31.101
23.24,86.3406,3603.648,-73.416,-35.398,-10.495,2.013,36.976
23.26,86.3428,3601.823,-73.29,-51.941,-13.519,12.327,55.069
23.28,86.348,3599.926,-73.154,-47.316,-17.788,0.503,50.552
23.3,86.3533,3597.964,-73.075,-33.797,-9.961,-4.277,35.493
23.32,86.3626,3595.622,-73.091,-50.518,-12.807,-17.106,54.852
23.34,86.3742,3592.777,-73.141,-24.548,-11.74,-15.597,31.364
23.36,86.3798,3590.022,-73.28,-23.302,-6.937,-28.678,37.597
23.38,86.3846,3587.431,-73.517,-34.687,-9.428,-24.905,43.73
23.4,86.3817,3585.644,-73.763,-27.75,-10.673,-25.659,39.273
23.42,86.3812,3584.357,-73.906,-21.346,-9.606,-22.138,32.218
23.44,86.387,3582.964,-73.998,-21.524,-10.495,-24.653,34.368
23.46,86.3868,3581.988,-74.109,-20.812,-11.207,-25.659,34.887
23.48,86.3863,3581.393,-74.149,-25.971,-14.942,-32.703,44.354
23.5,86.3988,3580.013,-74.126,-16.365,-9.961,-23.898,30.63
23.52,86.4042,3578.57,-74.047,-15.476,-8.36,-21.131,27.494
23.54,86.4089,3577.127,-73.95,-14.764,-6.582,-18.364,24.465
23.56,86.4142,3575.631,-73.828,-17.077,-7.471,-18.867,26.522
23.58,86.422,3573.881,-73.737,-20.99,-9.25,-20.88,31.018
23.6,86.4323,3571.703,-73.591,-28.283,-11.562,-27.42,41.055
23.62,86.4371,3569.634,-73.479,-22.057,-6.759,-22.641,32.324
23.64,86.4469,3567.241,-73.324,-30.24,-5.692,-33.709,45.642
23.66,86.4507,3565.093,-73.251,-26.504,-3.736,-28.93,39.413
23.68,86.4543,3563.168,-73.265,-28.461,-2.49,-26.666,39.081
23.7,86.4527,3561.889,-73.408,-25.971,0.356,-25.156,36.159
23.72,86.4542,3560.888,-73.572,-24.37,1.245,-23.898,34.155
23.74,86.4543,3560.242,-73.69,-24.903,1.779,-20.88,32.547
23.76,86.4504,3560.233,-73.761,-31.485,0.889,-34.464,46.689
23.78,86.4563,3559.919,-73.777,-16.899,2.668,-17.106,24.193
23.8,86.4573,3559.744,-73.727,-17.966,5.514,-16.1,24.747
23.82,86.461,3559.45,-73.688,-29.528,2.135,-39.244,49.158
23.84,86.4643,3559.068,-73.639,-25.259,1.423,-26.917,36.94
23.86,86.4752,3557.966,-73.578,-23.48,2.49,-32.703,40.336
23.88,86.4808,3556.684,-73.472,-18.678,3.024,-23.144,29.894
23.9,86.4888,3555.039,-73.444,-13.697,5.159,-18.616,23.68
23.92,86.4972,3553.064,-73.508,-17.255,6.226,-18.112,25.779
23.94,86.4998,3551.295,-73.536,-23.125,6.404,-21.383,32.14
23.96,86.5053,3549.465,-73.581,-26.504,6.582,-23.144,35.797
23.98,86.5058,3548.011,-73.633,-27.216,8.005,-21.886,35.83
24,86.5099,3546.584,-73.512,-27.216,9.783,-22.641,36.729
24.02,86.5141,3545.159,-73.399,-25.437,10.851,-17.609,32.785
24.04,86.5222,3543.423,-73.207,-30.951,10.673,-19.119,37.913
24.06,86.5294,3541.498,-72.787,-31.307,10.673,-18.616,37.955
24.08,86.5395,3539.168,-72.153,-30.24,12.807,-16.1,36.574
24.1,86.5478,3536.655,-71.603,-24.903,11.74,-11.823,29.963
24.12,86.5502,3534.5,-71.329,-27.216,12.985,-11.32,32.21
24.14,86.5579,3532.211,-71.198,-24.726,10.495,-9.811,28.596
24.16,86.5627,3530.062,-71.078,-28.105,11.74,-11.32,32.494
24.18,86.5684,3527.972,-70.946,-33.264,8.36,-11.32,36.118
24.2,86.5746,3525.886,-70.869,-28.283,9.072,-7.798,30.709
24.22,86.5765,3524.176,-70.77,-24.014,8.36,-8.05,26.672
24.24,86.5857,3522.178,-70.433,-24.903,6.759,-7.798,26.957
24.26,86.5888,3520.446,-70.057,-28.105,5.692,-8.805,29.997
24.28,86.5961,3518.591,-69.54,-29.884,4.625,-9.056,31.567
24.3,86.6007,3516.862,-69.083,-31.307,3.202,-9.811,32.964
24.32,86.609,3514.925,-68.829,-34.153,1.067,-10.314,35.693
24.34,86.6238,3512.264,-68.681,-26.326,-1.779,-6.289,27.126
24.36,86.6232,3510.295,-68.619,-30.951,-4.981,-8.553,32.495
24.38,86.6361,3507.778,-68.589,-34.509,-9.606,-10.566,37.347
24.4,86.6382,3505.71,-68.543,-33.62,-12.274,-11.823,37.692
24.42,86.6366,3504.339,-68.374,-43.225,-15.12,-14.591,48.062
24.44,86.6382,3503.295,-68.175,-33.62,-12.274,-16.1,39.245
24.46,86.6431,3502.241,-67.946,-28.283,-16.187,-8.05,33.567
24.48,86.6446,3501.461,-67.68,-34.509,-13.163,-25.911,45.117
24.5,86.6528,3500.333,-67.396,-27.394,-12.096,-18.364,35.128
24.52,86.6557,3499.345,-67.275,-33.797,-13.163,-21.886,42.362
24.54,86.6572,3498.589,-67.255,-22.769,-9.961,-15.094,29.077
24.56,86.6603,3497.882,-67.281,-21.524,-9.428,-18.616,29.978
24.58,86.6679,3496.826,-67.373,-33.797,-14.586,-30.439,47.766
24.6,86.6637,3496.459,-67.53,-28.283,-13.341,-28.427,42.261
24.62,86.67,3495.787,-67.772,-19.567,-11.029,-25.659,34.101
24.64,86.6695,3495.414,-68.033,-23.302,-13.697,-32.955,42.622
24.66,86.6747,3494.802,-68.361,-24.014,-13.697,-35.47,44.971
24.68,86.6801,3493.958,-68.708,-25.259,-15.298,-36.728,47.128
24.7,86.6875,3492.743,-69.096,-15.298,-9.606,-29.433,34.534
24.72,86.692,3491.451,-69.394,-13.697,-7.649,-25.156,29.647
24.74,86.6971,3490.041,-69.574,-12.452,-7.115,-24.402,28.304
24.76,86.6991,3488.797,-69.725,-15.298,-7.827,-27.672,32.573
24.78,86.7025,3487.568,-69.788,-17.966,-9.783,-31.948,37.937
24.8,86.7068,3486.284,-69.811,-14.586,-9.25,-27.42,32.407
24.82,86.7122,3484.859,-69.773,-16.365,-8.894,-27.672,33.356
24.84,86.7169,3483.375,-69.708,-15.298,-8.183,-23.647,29.328
24.86,86.7216,3481.848,-69.646,-18.322,-11.207,-30.691,37.459
24.88,86.7209,3480.74,-69.681,-15.12,-10.495,-27.42,33.025
24.9,86.7277,3479.354,-69.854,-12.807,-9.25,-26.414,30.778
24.92,86.7362,3477.6,-70.081,-11.918,-10.139,-26.163,30.485
24.94,86.7346,3476.38,-70.304,-9.25,-9.25,-23.144,26.585
24.96,86.7321,3475.696,-70.502,-14.408,-12.63,-31.194,36.608
24.98,86.7341,3475.094,-70.657,-10.673,-12.096,-26.666,31.165
25,86.7278,3475.248,-70.737,-11.207,-12.63,-29.433,33.932
25.02,86.7269,3475.587,-70.763,-9.961,-14.231,-30.439,35.047
25.04,86.7227,3476.345,-70.695,-10.673,-18.5,-33.709,39.906
25.06,86.7101,3478.156,-70.635,-8.894,-20.634,-28.678,36.432
25.08,86.6937,3481.162,-70.634,-11.74,-22.413,-25.156,35.679
25.1,86.7164,3481.851,-70.74,-11.207,-22.947,-22.138,33.797
25.12,86.7534,3479.332,-70.922,-14.764,-25.081,-18.616,34.548
25.14,86.779,3475.034,-71.11,-16.543,-23.658,-11.572,31.101
25.16,86.7845,3470.951,-71.359,-21.346,-21.702,-5.786,30.985
25.18,86.7947,3466.69,-71.708,-21.879,-15.12,-3.522,26.828
25.2,86.8064,3462.182,-72.106,-25.615,-4.625,-8.805,27.478
25.22,86.8034,3458.746,-72.457,-40.557,16.365,-2.767,43.822
25.24,86.7837,3457.665,-72.824,-31.663,21.702,23.898,45.218
25.26,86.7708,3458.035,-73.139,-47.139,20.456,22.389,56.052
25.28,86.7613,3459.349,-73.316,-9.25,7.471,3.773,12.475
25.3,86.7712,3459.813,-73.354,-10.317,26.326,18.616,33.854
25.32,86.7967,3458.216,-73.288,-45.182,-1.423,11.069,46.54
25.34,86.8077,3456.082,-73.325,-46.783,10.495,19.37,51.711
25.36,86.8145,3453.851,-73.628,-20.812,10.851,15.597,28.181
25.38,86.8211,3451.552,-73.893,-21.524,11.918,15.597,29.13
25.4,86.8232,3449.596,-74.208,-38.778,13.519,21.634,46.417
25.42,86.8214,3448.274,-74.551,-28.283,13.697,19.119,36.784
25.44,86.8274,3446.83,-74.824,-24.726,15.476,18.112,34.335
25.46,86.8271,3445.818,-75.044,-29.173,16.365,18.867,38.403
25.48,86.8318,3444.75,-75.236,-27.216,17.61,18.867,37.507
25.5,86.8396,3443.37,-75.341,-22.947,18.322,15.848,33.368
25.52,86.8536,3441.206,-75.481,-26.682,20.278,15.848,37.072
25.54,86.8686,3438.286,-75.61,-37.711,25.971,17.106,48.88
25.56,86.8782,3435.191,-75.732,-19.567,19.923,7.798,28.993
25.58,86.8894,3431.825,-75.881,-26.86,19.389,7.798,34.033
25.6,86.8983,3428.442,-76.081,-29.35,17.966,5.283,34.816
25.62,86.9066,3425.113,-76.252,-22.235,13.697,4.025,26.424
25.64,86.9134,3421.977,-76.462,-25.437,14.408,3.019,29.39
25.66,86.9202,3419.021,-76.58,-30.24,11.74,3.773,32.658
25.68,86.928,3416.146,-76.733,-24.014,9.428,3.773,26.073
25.7,86.9384,3413.132,-76.878,-32.73,9.961,4.528,34.511
25.72,86.9399,3410.761,-76.977,-33.264,10.495,7.798,35.741
25.74,86.9349,3409.489,-77.114,-26.86,9.072,7.798,29.404
25.76,86.9412,3408.195,-77.241,-25.615,7.471,8.805,28.097
25.78,86.9452,3407.074,-77.342,-40.913,12.452,10.314,43.992
25.8,86.9447,3406.465,-77.415,-45.716,13.697,14.842,49.978
25.82,86.9465,3406.079,-77.411,-49.273,12.985,17.609,53.912
25.84,86.9496,3405.762,-77.371,-66.35,14.764,22.641,71.644
25.86,86.9563,3405.174,-77.363,-74.888,11.918,22.389,79.067
25.88,86.9658,3404.106,-77.418,-49.985,3.024,8.805,50.844
25.9,86.9853,3401.773,-77.493,-44.826,-0.712,6.037,45.237
25.92,86.993,3399.347,-77.561,-36.11,-5.87,2.516,36.67
25.94,86.9943,3397.387,-77.723,-34.865,-5.336,0.252,35.272
25.96,86.9989,3395.546,-77.798,-47.672,-9.606,3.019,48.724
25.98,86.9983,3394.239,-77.928,-28.817,-5.692,4.277,29.683
26,86.9994,3393.25,-78.008,-36.288,-6.048,7.044,37.457
26.02,86.999,3392.649,-78.02,-21.702,-1.779,9.056,23.583
26.04,86.9942,3392.734,-78.061,-23.302,-0.534,10.063,25.388
26.06,86.9963,3392.808,-78.016,-38.778,-0.712,15.094,41.618
26.08,87.0051,3392.289,-77.833,-21.702,2.846,10.314,24.196
26.1,87.0162,3391.061,-77.358,-19.211,4.981,9.559,22.029
26.12,87.0254,3389.369,-77.058,-22.057,5.336,9.056,24.434
26.14,87.0335,3387.388,-77.03,-22.591,5.87,8.302,24.773
26.16,87.0418,3385.137,-77.19,-21.702,5.692,6.289,23.3
26.18,87.0578,3382.027,-77.347,-31.307,4.625,7.044,32.421
26.2,87.0677,3378.702,-77.544,-22.947,3.38,4.025,23.541
26.22,87.0658,3376.206,-77.785,-30.774,0.889,2.264,30.869
26.24,87.0756,3373.452,-77.897,-23.658,-1.601,1.258,23.746
26.26,87.0703,3371.758,-77.739,-17.077,-1.779,0,17.169
26.28,87.0615,3371.268,-77.253,-31.485,-5.159,0,31.905
26.3,87.0481,3372.193,-76.569,-35.754,-12.63,1.006,37.933
26.32,87.0408,3373.791,-75.847,-21.168,-9.072,-2.264,23.141
26.34,87.0525,3374.332,-75.175,-15.298,-7.827,0,17.184
26.36,87.076,3372.962,-74.492,-33.62,-20.812,5.534,39.926
26.38,87.0812,3371.483,-73.726,-59.235,-32.552,14.087,69.042
26.4,87.0829,3370.208,-72.876,-19.567,-14.586,11.572,27.01
26.42,87.0928,3368.419,-72.004,-20.456,-8.005,16.1,27.235
26.44,87.0958,3366.771,-70.969,-27.394,-1.423,21.383,34.78
26.46,87.0975,3365.363,-69.918,-33.975,0.534,24.15,41.687
26.48,87.0985,3364.215,-68.758,-31.663,0.712,22.641,38.931
26.5,87.0963,3363.56,-67.649,-28.995,1.957,17.358,33.85
26.52,87.101,3362.746,-66.61,-25.615,2.135,14.087,29.311
26.54,87.1057,3361.79,-65.782,-22.057,1.779,10.314,24.415
26.56,87.1125,3360.535,-65.165,-20.456,0.178,6.792,21.555
26.58,87.1215,3358.844,-64.678,-35.576,-2.846,7.547,36.479
26.6,87.1286,3356.93,-64.395,-45.36,-8.005,9.308,46.992
26.62,87.1387,3354.6,-64.315,-26.682,-5.692,5.283,27.789
26.64,87.1464,3352.115,-64.424,-33.086,-8.183,5.283,34.49
26.66,87.1461,3350.186,-64.6,-30.951,-7.827,6.541,32.589
26.68,87.1543,3348.026,-64.853,-34.687,-9.072,6.541,36.445
26.7,87.1573,3346.116,-65.172,-26.326,-9.961,6.792,28.956
26.72,87.1543,3344.933,-65.587,-33.442,-13.519,10.063,37.448
26.74,87.1633,3343.367,-65.936,-21.346,-8.538,10.063,25.096
26.76,87.1664,3341.965,-66.195,-22.769,-7.115,13.081,27.206
26.78,87.1709,3340.59,-66.414,-27.927,-7.649,13.836,32.092
26.8,87.1737,3339.379,-66.528,-22.591,-2.668,9.811,24.773
26.82,87.17,3338.847,-66.576,-18.144,-0.356,7.798,19.752
26.84,87.1698,3338.6,-66.621,-15.654,0.356,6.792,17.067
26.86,87.1779,3337.896,-66.662,-18.144,1.423,6.541,19.339
26.88,87.1892,3336.508,-66.703,-17.61,1.601,4.78,18.317
26.9,87.2016,3334.448,-66.797,-18.322,0.889,4.025,18.78
26.92,87.2034,3332.71,-67.012,-23.302,-0.178,4.78,23.788
26.94,87.2147,3330.454,-67.336,-35.398,-2.312,6.792,36.118
26.96,87.2164,3328.56,-67.578,-30.596,-1.423,6.037,31.218
26.98,87.2345,3325.619,-67.786,-28.995,-0.889,4.78,29.399
27,87.2373,3323.068,-67.931,-29.528,0,4.277,29.836
27.02,87.2459,3320.379,-67.992,-27.038,0.712,2.013,27.122
27.04,87.2605,3317.085,-68.037,-29.884,-1.779,0.252,29.938
27.06,87.2658,3314.067,-68.016,-20.634,-6.759,0.252,21.715
27.08,87.2746,3311.011,-67.911,-31.129,-15.831,-3.019,35.054
27.1,87.27,3309.061,-67.846,-43.403,-6.404,-3.019,43.977
27.12,87.2779,3307.01,-67.837,-53.187,-10.851,-5.786,54.59
27.14,87.2814,3305.249,-67.934,-65.638,-9.428,-7.295,66.712
27.16,87.2868,3303.574,-68.048,-80.758,-11.74,-27.42,86.091
27.18,87.291,3302.072,-68.199,-64.215,10.851,-54.841,85.14
27.2,87.2951,3300.714,-68.459,-22.235,12.63,-66.412,71.166
27.22,87.2983,3299.562,-68.804,-19.389,0.534,-0.503,19.403
27.24,87.2965,3298.986,-69.079,-33.264,-4.803,-22.389,40.383
27.26,87.2965,3298.741,-69.425,-23.125,3.202,-18.364,29.702
27.28,87.2836,3299.846,-69.671,-15.831,3.736,-12.83,20.717
27.3,87.2815,3301.167,-69.875,-15.476,6.937,-11.32,20.391
27.32,87.2775,3302.795,-69.987,-13.697,8.716,-12.327,20.384
27.34,87.267,3305.202,-69.987,-18.322,12.985,-16.1,27.632
27.36,87.2643,3307.578,-70.033,-10.673,12.807,-13.836,21.665
27.38,87.257,3310.272,-70.291,-21.879,17.966,-25.659,38.209
27.4,87.2497,3313.192,-70.544,-30.951,19.923,-40.502,54.729
27.42,87.2538,3315.314,-70.719,-18.855,16.721,-33.206,41.687
27.44,87.246,3317.704,-70.878,-12.807,13.875,-34.213,39.077
27.46,87.2466,3319.601,-71.057,-5.692,10.673,-32.2,34.397
27.48,87.2433,3321.364,-71.186,-6.937,12.985,-27.169,30.901
27.5,87.2524,3321.959,-71.242,-11.384,14.942,-32.452,37.496
27.52,87.2606,3321.615,-71.232,-22.769,17.788,-37.483,47.327
27.54,87.2782,3319.685,-71.238,-27.038,16.721,-34.464,46.887
27.56,87.295,3316.487,-71.268,-15.831,11.207,-21.131,28.684
27.58,87.3081,3312.554,-71.31,-31.485,12.274,-27.672,43.677
27.6,87.328,3307.462,-71.456,-30.062,15.12,-21.383,39.869
27.62,87.3504,3301.226,-71.625,-35.043,9.072,-20.377,41.539
27.64,87.372,3294.147,-71.807,-51.941,9.961,-21.383,57.047
27.66,87.3821,3287.385,-72.017,-69.552,6.937,-26.163,74.633
27.68,87.3925,3280.942,-72.127,-48.206,2.668,-16.603,51.055
27.7,87.4019,3274.924,-72.261,-33.797,-3.202,-10.817,35.631
27.72,87.4113,3269.332,-72.335,-25.615,-5.692,-5.786,26.87
27.74,87.4118,3264.898,-72.224,-32.019,-10.317,-7.547,34.476
27.76,87.4165,3261.143,-72.172,-41.98,-13.519,-11.32,45.533
27.78,87.415,3258.509,-72.04,-36.11,-15.476,-10.314,40.618
27.8,87.4088,3257.246,-71.863,-33.264,-14.408,-14.087,38.891
27.82,87.4113,3256.419,-71.661,-35.221,-22.769,-23.898,48.271
27.84,87.4185,3255.559,-71.339,-36.288,-21.702,-24.402,48.818
27.86,87.4242,3254.771,-71.019,-30.951,-17.077,-19.37,40.309
27.88,87.4269,3254.281,-70.712,-23.836,-13.519,-17.609,32.573
27.9,87.4322,3253.804,-70.423,-29.706,-15.12,-25.659,42.065
27.92,87.4355,3253.486,-70.192,-40.201,-10.673,-34.716,54.178
27.94,87.4487,3252.445,-69.953,-26.326,-3.913,-28.175,38.759
27.96,87.4473,3251.984,-69.743,-13.341,-2.668,-23.395,27.064
27.98,87.4479,3251.838,-69.561,-12.274,-2.668,-17.106,21.222
28,87.4505,3251.762,-69.514,-14.586,0,-26.917,30.615
28.02,87.449,3252.062,-69.607,-28.283,-3.024,-39.747,48.876
28.04,87.4567,3251.888,-69.806,-6.582,2.312,-24.15,25.137
28.06,87.4634,3251.37,-70.167,-9.606,2.846,-22.138,24.299
28.08,87.4613,3251.271,-70.577,-5.336,1.779,-20.628,21.381
28.1,87.4661,3250.936,-71.123,-10.139,3.736,-25.408,27.61
28.12,87.4702,3250.44,-71.57,-17.966,5.87,-38.992,43.332
28.14,87.4815,3249.184,-72.166,-5.87,2.668,-21.131,22.093
28.16,87.4844,3247.985,-72.705,-3.913,2.49,-21.131,21.634
28.18,87.4891,3246.668,-73.278,-5.692,1.067,-20.628,21.426
28.2,87.4937,3245.263,-73.783,-7.649,2.312,-20.377,21.887
28.22,87.5021,3243.47,-74.202,-19.033,0.534,-30.691,36.117
28.24,87.5047,3241.832,-74.602,-8.894,0,-15.597,17.955
28.26,87.5115,3239.978,-74.808,-11.918,0.534,-17.861,21.479
28.28,87.5147,3238.247,-75.043,-11.74,0.712,-17.358,20.967
28.3,87.5274,3235.831,-75.133,-22.235,-1.957,-22.641,31.794
28.32,87.5405,3232.808,-75.18,-35.576,-5.692,-25.911,44.379
28.34,87.5453,3229.983,-75.156,-20.456,-3.38,-11.069,23.503
28.36,87.5485,3227.483,-75.03,-26.149,-4.447,-21.634,34.228
28.38,87.5582,3224.726,-74.792,-28.105,-6.404,-17.609,33.779
28.4,87.5618,3222.272,-74.424,-39.49,-14.231,-18.112,45.717
28.42,87.561,3220.466,-73.869,-38.245,-12.274,-16.352,43.367
28.44,87.5589,3219.325,-73.274,-21.879,-8.716,-12.075,26.467
28.46,87.5671,3217.888,-72.591,-26.86,-8.36,-12.578,30.815
28.48,87.5693,3216.701,-71.865,-35.576,-8.894,-16.603,40.255
28.5,87.5697,3215.875,-71.097,-33.62,-11.562,-12.83,37.796
28.52,87.5739,3215.037,-70.343,-25.971,-12.452,-9.308,30.268
28.54,87.5803,3213.997,-69.667,-43.047,-17.788,-22.389,51.679
28.56,87.588,3212.665,-69.155,-29.35,-10.851,-16.603,35.424
28.58,87.592,3211.383,-68.768,-18.144,-4.981,-10.063,21.337
28.6,87.604,3209.479,-68.493,-25.437,-3.38,-16.352,30.428
28.62,87.6089,3207.638,-68.387,-26.86,-3.736,-19.119,33.181
28.64,87.6098,3206.195,-68.429,-23.48,-2.135,-19.37,30.514
28.66,87.6145,3204.768,-68.581,-16.009,0,-14.339,21.492
28.68,87.613,3203.869,-68.782,-18.322,0.178,-17.358,25.239
28.7,87.6165,3202.996,-69.007,-20.99,1.067,-21.383,29.982
28.72,87.616,3202.477,-69.321,-15.654,1.067,-20.628,25.917
28.74,87.6076,3202.916,-69.657,-12.985,3.38,-16.855,21.544
28.76,87.6141,3202.9,-69.939,-10.673,4.625,-17.106,20.686
28.78,87.611,3203.289,-70.19,-16.543,4.091,-21.131,27.147
28.8,87.6102,3203.815,-70.445,-10.139,5.159,-16.603,20.127
28.82,87.6135,3204.088,-70.617,-9.072,6.226,-15.345,18.882
28.84,87.6126,3204.485,-70.764,-10.317,6.759,-14.842,19.298
28.86,87.6218,3204.129,-70.987,-12.096,8.183,-16.352,21.923
28.88,87.624,3203.693,-71.168,-10.139,9.428,-14.591,20.114
28.9,87.6235,3203.419,-71.34,-11.562,9.783,-15.094,21.383
28.92,87.626,3203.022,-71.525,-11.562,8.005,-14.842,20.446
28.94,87.6317,3202.255,-71.66,-15.12,9.783,-17.609,25.188
28.96,87.6322,3201.597,-71.821,-19.745,11.918,-20.628,30.942
28.98,87.6416,3200.292,-71.893,-22.235,10.851,-19.119,31.268
29,87.647,3198.77,-71.832,-22.235,10.851,-16.855,29.937
29.02,87.6677,3195.793,-71.667,-28.105,11.384,-17.609,35.066
29.04,87.6796,3192.332,-71.417,-33.442,10.673,-23.898,42.466
29.06,87.6914,3188.495,-71.17,-39.134,9.606,-23.395,46.595
29.08,87.7002,3184.614,-70.891,-39.49,7.115,-20.377,45.003
29.1,87.7151,3180.233,-70.537,-39.312,2.312,-22.138,45.176
29.12,87.7174,3176.503,-70.203,-33.264,-0.889,-18.364,38.007
29.14,87.735,3172.086,-70.045,-29.35,-1.601,-15.848,33.394
29.16,87.7344,3168.636,-70.094,-28.995,-13.341,-23.898,39.872
29.18,87.7418,3165.37,-70.125,-30.062,-9.072,-20.88,37.709
29.2,87.7386,3163.158,-70.116,-25.259,-8.183,-21.131,33.934
29.22,87.734,3161.983,-70.109,-22.591,-9.072,-22.389,33.074
29.24,87.7375,3161.02,-70.026,-22.769,-10.317,-25.659,35.823
29.26,87.7261,3161.466,-69.948,-18.5,-9.961,-26.163,33.555
29.28,87.7381,3161.144,-69.957,-17.966,-9.428,-26.917,33.707
29.3,87.7443,3160.633,-69.978,-17.255,-8.005,-28.93,34.623
29.32,87.7505,3159.934,-70.092,-16.543,-7.293,-31.194,36.054
29.34,87.7559,3159.132,-70.321,-14.053,-5.514,-27.672,31.522
29.36,87.7651,3157.912,-70.639,-10.317,-3.202,-22.892,25.313
29.38,87.7652,3157.082,-70.968,-15.476,0.178,-26.414,30.614
29.4,87.7682,3156.333,-71.289,-19.923,5.692,-24.653,32.204
29.42,87.765,3156.164,-71.663,-15.298,4.625,-18.616,24.535
29.44,87.7667,3156.063,-71.947,-19.033,4.091,-17.609,26.251
29.46,87.775,3155.446,-72.127,-21.346,1.779,-21.131,30.089
29.48,87.7803,3154.628,-72.36,-20.278,2.135,-17.861,27.107
29.5,87.7895,3153.308,-72.594,-20.278,1.423,-16.352,26.089
29.52,87.7928,3152.041,-72.799,-18.322,1.601,-13.836,23.015
29.54,87.8039,3150.172,-72.943,-18.855,1.423,-13.836,23.43
29.56,87.8152,3147.767,-73.053,-22.057,0.356,-16.855,27.762
29.58,87.8226,3145.241,-73.164,-21.346,0.356,-13.584,25.304
29.6,87.8325,3142.424,-73.27,-24.548,-0.356,-13.584,28.058
29.62,87.8414,3139.445,-73.41,-32.019,-3.202,-17.106,36.443
29.64,87.8455,3136.75,-73.557,-22.235,-0.178,-11.069,24.839
29.66,87.8456,3134.645,-73.597,-23.836,-1.067,-10.063,25.895
29.68,87.8502,3132.679,-73.689,-28.283,-1.245,-11.823,30.68
29.7,87.8517,3131.093,-73.837,-24.014,-5.159,-13.584,28.068
29.72,87.861,3129.188,-74.006,-27.216,-3.38,-12.075,29.966
29.74,87.8633,3127.596,-74.096,-29.528,-6.404,-17.861,35.099
29.76,87.8657,3126.264,-73.971,-30.951,-5.692,-16.855,35.7
29.78,87.8664,3125.29,-73.769,-32.019,-4.981,-15.094,35.747
29.8,87.8776,3123.749,-73.482,-39.49,-5.692,-18.616,44.027
29.82,87.8837,3122.136,-73.197,-31.307,-7.471,-11.823,34.289
29.84,87.8879,3120.627,-72.879,-46.071,-11.562,-19.119,51.203
29.86,87.8988,3118.649,-72.474,-50.34,-11.562,-24.15,57.018
29.88,87.8978,3117.253,-72.114,-35.576,-7.827,-19.873,41.496
29.9,87.9034,3115.813,-71.898,-32.197,-6.226,-21.634,39.286
29.92,87.9091,3114.317,-71.624,-28.461,-4.625,-21.383,35.898
29.94,87.9095,3113.216,-71.357,-29.173,-3.913,-26.666,39.717
29.96,87.9087,3112.549,-71.063,-37.711,-3.558,-32.452,49.879
29.98,87.9091,3112.14,-70.759,-29.35,-2.312,-24.653,38.4
30,87.9029,3112.49,-70.434,-17.255,0.534,-17.106,24.303
30.02,87.8977,3113.388,-69.957,-30.951,1.779,-33.961,45.984
30.04,87.8987,3114.221,-69.637,-32.552,3.38,-32.703,46.266
30.06,87.9002,3114.92,-69.484,-38.956,7.293,-41.005,57.028
30.08,87.8986,3115.749,-69.459,-22.769,9.25,-26.163,35.895
30.1,87.9012,3116.314,-69.519,-15.476,8.005,-16.1,23.723
30.12,87.9071,3116.355,-69.785,-29.528,14.586,-21.131,39.131
30.14,87.9314,3114.404,-70.056,-33.62,14.764,-20.88,42.24
30.16,87.9525,3111.017,-70.469,-46.783,12.985,-23.898,54.115
30.18,87.957,3107.808,-70.785,-18.322,6.582,-8.805,21.367
30.2,87.957,3105.155,-71.059,-20.278,4.625,-9.056,22.685
30.22,87.9617,3102.61,-71.146,-25.081,3.024,-8.302,26.592
30.24,87.9542,3101.192,-71.033,-27.927,-1.601,-5.534,28.515
30.26,87.9612,3099.537,-70.904,-37.889,3.024,-2.264,38.077
30.28,87.9733,3097.264,-70.666,-23.302,-3.38,-1.258,23.58
30.3,87.9804,3094.89,-70.503,-28.817,-2.49,-6.792,29.711
30.32,87.9872,3092.472,-70.334,-27.216,-5.514,-7.295,28.711
30.34,87.9956,3089.891,-70.18,-36.466,-6.582,-12.327,39.051
30.36,88.0102,3086.676,-70.041,-24.548,-6.404,-9.559,27.11
30.38,88.0174,3083.55,-69.938,-24.903,-3.913,-12.578,28.173
30.4,88.016,3081.243,-69.788,-13.697,-2.312,-15.597,20.886
30.42,88.0274,3078.573,-69.646,-25.615,-4.981,-22.389,34.383
30.44,88.0275,3076.551,-69.428,-22.057,-4.981,-18.616,29.289
30.46,88.0273,3075.113,-69.209,-21.702,-4.625,-21.886,31.166
30.48,88.0342,3073.586,-69.001,-25.259,-4.981,-23.395,34.788
30.5,88.0411,3071.979,-68.891,-25.793,-5.159,-22.892,34.87
30.52,88.0473,3070.354,-68.792,-27.394,-6.048,-26.666,38.705
30.54,88.0456,3069.378,-68.708,-18.855,-2.49,-20.628,28.058
30.56,88.0447,3068.874,-68.665,-19.567,-0.712,-18.616,27.017
30.58,88.0463,3068.559,-68.724,-23.658,0.178,-23.144,33.096
30.6,88.0508,3068.145,-68.765,-24.726,0.889,-23.898,34.399
30.621,88.0515,3067.945,-68.899,-20.99,3.558,-19.119,28.614
30.641,88.056,3067.596,-69.098,-25.437,4.091,-20.125,32.692
30.661,88.0525,3067.767,-69.295,-26.504,4.447,-19.119,32.982
30.681,88.0619,3067.294,-69.429,-28.995,5.159,-19.873,35.528
30.701,88.0791,3065.606,-69.581,-33.62,5.514,-18.112,38.584
30.721,88.0867,3063.673,-69.682,-36.11,3.736,-17.106,40.131
30.741,88.0883,3062.037,-69.851,-33.442,3.913,-14.087,36.498
30.761,88.0822,3061.3,-70.003,-40.913,4.625,-13.333,43.278
30.781,88.076,3061.328,-70.118,-37.889,4.447,-10.566,39.585
30.801,88.0791,3061.225,-70.147,-30.596,2.49,-7.798,31.672
30.821,88.0895,3060.398,-70.28,-28.461,1.779,0.755,28.527
30.841,88.0924,3059.563,-70.369,-38.067,-1.779,-1.258,38.129
30.861,88.0927,3058.929,-70.412,-41.802,-6.937,-4.025,42.565
30.881,88.0982,3058.031,-70.545,-28.461,-4.269,2.013,28.85
30.901,88.1214,3055.441,-70.699,-26.504,-7.649,2.516,27.7
30.921,88.1254,3052.999,-70.899,-36.466,-12.63,-4.025,38.8
30.941,88.1339,3050.335,-71.121,-26.86,-10.495,-5.534,29.364
30.961,88.1351,3048.099,-71.312,-22.057,-11.029,-6.289,25.45
30.981,88.1437,3045.633,-71.429,-32.73,-13.519,-11.572,37.255
31.001,88.1416,3043.869,-71.459,-34.153,-17.077,-45.281,59.232
31.021,88.1293,3043.566,-71.371,-30.596,-17.077,-19.37,40.036
31.041,88.1354,3042.971,-71.165,-40.023,-19.033,-28.93,52.925
31.061,88.1514,3041.304,-70.933,-49.273,-22.591,-35.219,64.642
31.081,88.163,3039.087,-70.663,-46.783,-20.101,-33.206,60.789
31.101,88.173,3036.541,-70.349,-47.672,-15.298,-29.181,57.95
31.121,88.1906,3033.09,-70.01,-34.865,-7.827,-19.37,40.645
31.141,88.1981,3029.727,-69.708,-37.711,-6.759,-20.125,43.276
31.161,88.2058,3026.444,-69.6,-40.379,-3.38,-20.125,45.243
31.181,88.2051,3023.948,-69.665,-43.403,-0.356,-22.138,48.724
31.201,88.2014,3022.382,-69.731,-30.418,1.601,-11.572,32.584
31.221,88.1937,3021.955,-69.81,-35.754,4.091,-9.559,37.236
31.241,88.1849,3022.584,-69.921,-28.283,2.668,-9.559,29.974
31.261,88.1885,3023.055,-69.952,-28.461,1.067,-7.295,29.401
31.281,88.1968,3022.979,-70.021,-33.442,7.827,2.767,34.457
31.301,88.2025,3022.64,-70.083,-29.528,6.404,7.295,31.083
31.321,88.2048,3022.337,-70.195,-33.975,11.562,5.031,36.24
31.341,88.2094,3021.853,-70.313,-26.504,14.053,-0.755,30.009
31.361,88.2147,3021.156,-70.384,-26.682,13.519,-1.761,29.963
31.381,88.2183,3020.4,-70.501,-22.057,14.586,-1.006,26.463
31.401,88.2224,3019.548,-70.613,-28.105,13.163,-2.767,31.158
31.421,88.2292,3018.384,-70.583,-28.283,12.985,-3.019,31.268
31.441,88.2328,3017.211,-70.603,-32.552,13.341,-4.277,35.439
31.461,88.2411,3015.646,-70.63,-34.687,10.851,-4.78,36.657
31.481,88.2431,3014.263,-70.654,-26.682,10.317,-3.773,28.855
31.501,88.2573,3012.028,-70.7,-36.11,7.293,-7.547,37.604
31.521,88.2596,3010.065,-70.789,-28.639,9.428,-9.056,31.482
31.541,88.2668,3007.934,-70.943,-28.283,6.582,-10.063,30.733
31.561,88.2698,3006.015,-71.017,-22.591,7.649,-6.037,24.603
31.581,88.2792,3003.761,-71.076,-36.11,6.226,-10.314,38.067
31.601,88.2783,3002.086,-71.108,-18.5,3.913,-7.547,20.359
31.621,88.2881,3000.023,-71.117,-21.346,3.913,-9.056,23.515
31.641,88.2955,2997.832,-71.101,-35.221,4.981,-14.087,38.259
31.661,88.3002,2995.768,-71.14,-29.528,4.625,-12.83,32.526
31.681,88.3023,2994.035,-71.152,-31.129,5.159,-14.591,34.764
31.701,88.3084,2992.256,-71.302,-46.605,4.981,-21.131,51.414
31.721,88.3106,2990.767,-71.51,-27.927,1.601,-13.081,30.881
31.741,88.3179,2989.103,-71.73,-22.413,-1.779,-7.295,23.638
31.761,88.3225,2987.517,-71.83,-30.24,-5.336,-15.345,34.328
31.781,88.3252,2986.156,-71.743,-28.639,-3.736,-15.094,32.588
31.801,88.3241,2985.293,-71.467,-31.307,-2.846,-10.063,33.007
31.821,88.3334,2983.999,-71.08,-30.062,-3.38,-8.302,31.37
31.841,88.3309,2983.305,-70.859,-35.221,-5.336,-8.553,36.635
31.861,88.3309,2982.91,-70.681,-44.115,-7.115,-10.817,45.975
31.881,88.3387,2982.109,-70.482,-38.6,-12.63,-5.786,41.024
31.901,88.3512,2980.564,-70.29,-36.466,-9.783,-8.553,38.712
31.921,88.3591,2978.77,-70.164,-46.427,-13.341,-13.836,50.248
31.941,88.3658,2976.856,-69.86,-37.355,-16.365,-21.886,46.284
31.961,88.3699,2975.056,-69.518,-27.572,-10.851,-9.308,31.058
31.981,88.3726,2973.476,-68.89,-28.105,-13.875,-7.547,32.239
32.001,88.3711,2972.443,-68.293,-24.548,-12.096,-12.578,30.118
32.021,88.3737,2971.527,-67.973,-17.432,-8.538,-10.314,21.981
32.041,88.3749,2970.818,-67.688,-13.341,-6.937,-7.044,16.605
32.061,88.3809,2969.888,-67.51,-20.812,-10.139,-14.339,27.232
32.081,88.3845,2968.955,-67.417,-20.812,-9.072,-13.584,26.457
32.101,88.3908,2967.798,-67.37,-29.173,-11.74,-21.886,38.313
32.121,88.3955,2966.575,-67.188,-27.038,-12.807,-15.848,33.856
32.141,88.4034,2965.027,-67.228,-45.004,-17.966,-30.439,57.225
32.161,88.4102,2963.297,-67.356,-27.927,-11.918,-17.358,34.975
32.181,88.4179,2961.336,-67.554,-40.023,-15.476,-22.641,48.518
32.201,88.4227,2959.428,-67.763,-23.836,-8.538,-15.848,29.87
32.221,88.4328,2957.131,-67.981,-31.485,-9.783,-22.389,39.853
32.241,88.4418,2954.601,-68.117,-25.437,-6.226,-18.616,32.13
32.261,88.4502,2951.93,-68.138,-34.153,-7.471,-23.144,41.927
32.281,88.457,2949.29,-68.133,-31.129,-6.582,-22.138,38.761
32.301,88.4536,2947.531,-68.09,-28.461,-4.981,-23.144,37.02
32.321,88.4618,2945.577,-68.013,-42.514,-4.803,-31.194,52.948
32.341,88.4653,2943.841,-67.909,-26.149,0.178,-16.855,31.11
32.361,88.4606,2942.978,-67.817,-30.596,-1.779,-20.377,36.803
32.381,88.4601,2942.51,-67.747,-42.692,-0.356,-34.213,54.71
32.401,88.4616,2942.206,-67.694,-23.302,2.312,-22.641,32.572
32.421,88.4555,2942.651,-67.535,-23.836,-0.356,-23.395,33.401
32.441,88.459,2942.93,-67.4,-20.99,4.981,-21.886,30.731
32.461,88.4679,2942.586,-67.217,-21.346,2.49,-21.383,30.316
32.481,88.4763,2941.75,-67.098,-17.255,1.245,-19.622,26.159
32.501,88.4811,2940.778,-66.993,-19.389,0.178,-23.144,30.193
32.521,88.4878,2939.517,-66.904,-18.322,-1.957,-20.88,27.847
32.541,88.4976,2937.767,-66.639,-21.346,-3.913,-23.647,32.096
32.561,88.4992,2936.266,-66.471,-23.658,-5.514,-26.163,35.701
32.581,88.5081,2934.388,-66.222,-20.101,-6.226,-22.389,30.726
32.601,88.5117,2932.624,-66.112,-20.456,-6.937,-21.131,30.218
32.621,88.5148,2931.013,-66.062,-33.975,-14.053,-32.703,49.207
32.641,88.5201,2929.349,-66.008,-57.278,-16.365,-43.017,73.478
32.661,88.5311,2927.17,-65.801,-53.187,-11.918,-33.206,63.824
32.681,88.5415,2924.612,-65.544,-68.84,-12.985,-44.778,83.142
32.701,88.5565,2921.369,-65.307,-49.807,-8.894,-35.47,61.79
32.721,88.5561,2918.82,-65.108,-29.528,-2.49,-19.873,35.68
32.741,88.5593,2916.596,-65.018,-30.596,-1.423,-22.641,38.088
32.761,88.553,2915.437,-65.016,-16.365,2.135,-13.836,21.536
32.781,88.5476,2915.118,-65.014,-35.932,1.067,-30.691,47.267
32.801,88.5425,2915.483,-64.985,-16.187,1.957,-21.383,26.89
32.821,88.5353,2916.592,-64.834,-17.077,2.135,-27.923,32.801
32.841,88.5529,2916.25,-64.739,-15.476,1.245,-28.175,32.17
32.861,88.5645,2915.156,-64.613,-25.971,-6.048,-42.514,50.185
32.881,88.5707,2913.85,-64.425,-7.827,-4.625,-21.886,23.699
32.901,88.5754,2912.491,-64.346,-13.875,-7.115,-30.439,34.2
32.921,88.5692,2911.993,-64.376,-9.783,-6.226,-25.659,28.158
32.941,88.5539,2912.977,-64.419,-8.894,-7.471,-29.181,31.408
32.961,88.5488,2914.356,-64.45,-6.048,-11.384,-30.942,33.52
32.981,88.5242,2917.666,-64.463,-6.759,-13.875,-27.923,31.905
33.001,88.5269,2920.326,-64.543,-15.654,-21.346,-27.923,38.476
33.021,88.568,2919.209,-64.545,-14.053,-20.101,-17.106,29.902
33.041,88.5927,2916.209,-64.544,-21.168,-16.899,-12.83,29.971
33.061,88.607,2912.477,-64.522,-23.125,-14.231,-8.805,28.544
33.081,88.6109,2909.018,-64.457,-19.033,-4.447,-4.528,20.064
33.101,88.6128,2905.982,-64.42,-27.572,9.428,-0.503,29.143
33.121,88.5968,2904.816,-64.384,-57.634,30.24,-13.584,66.488
33.141,88.6124,2902.652,-64.353,-32.197,21.524,-2.013,38.781
33.161,88.6229,2900.062,-64.378,-35.576,18.144,-4.277,40.164
33.181,88.6312,2897.306,-64.329,-84.494,15.12,-6.289,86.066
33.201,88.642,2894.227,-64.276,-46.249,2.135,-11.572,47.723
33.221,88.6555,2890.664,-64.225,-83.96,-1.067,-24.402,87.441
33.241,88.663,2887.213,-64.252,-55.855,-6.404,-16.1,58.481
33.261,88.6688,2884.025,-64.299,-33.797,2.135,-11.069,35.628
33.281,88.6712,2881.369,-64.455,-64.393,0.712,-14.087,65.92
33.301,88.6687,2879.578,-64.662,-45.716,5.159,-9.056,46.889
33.321,88.6682,2878.374,-64.86,-44.293,5.514,-9.308,45.595
33.341,88.6721,2877.312,-65.142,-32.019,6.404,-9.308,33.953
33.361,88.6781,2876.178,-65.505,-41.624,8.538,-12.578,44.314
33.381,88.6847,2874.932,-65.795,-50.34,5.514,-18.616,53.955
33.401,88.6927,2873.467,-66.057,-38.778,2.846,-14.591,41.53
33.421,88.6853,2873.085,-66.193,-36.288,0.356,-15.345,39.401
33.441,88.6911,2872.531,-66.23,-40.557,-8.538,-5.534,41.814
33.461,88.6912,2872.28,-66.211,-34.331,3.736,-22.892,41.432
33.481,88.6983,2871.691,-66.182,-25.971,-6.404,-13.836,30.115
33.501,88.7071,2870.655,-66.126,-30.951,-5.692,-10.063,33.04
33.521,88.7041,2870.209,-65.909,-28.283,-3.736,-9.056,29.932
33.541,88.691,2871.09,-65.665,-29.173,4.269,-9.056,30.843
33.561,88.703,2871.009,-65.504,-27.572,5.159,-10.063,29.8
33.581,88.6995,2871.363,-65.296,-26.504,16.543,-5.786,31.775
33.601,88.7141,2870.573,-65.13,-12.807,10.317,-3.019,16.721
33.621,88.7306,2868.642,-64.968,-27.038,23.48,-2.264,35.882
33.641,88.7291,2867.219,-64.825,-21.346,16.365,-3.019,27.066
33.661,88.713,2867.451,-64.83,-19.923,13.519,-6.289,24.884
33.681,88.7115,2867.874,-64.946,-11.384,9.961,-13.836,20.5
33.701,88.7192,2867.683,-65.124,-18.144,8.538,-12.327,23.538
33.721,88.7261,2867.023,-65.415,-17.077,10.317,-13.584,24.137
33.741,88.7443,2865.023,-65.676,-17.077,6.404,-8.805,20.252
33.761,88.7553,2862.481,-65.91,-12.985,-6.226,-6.792,15.922
33.781,88.7595,2860.055,-66.067,-4.269,12.452,-38.489,40.678
33.801,88.7624,2857.847,-66.121,-9.428,-4.447,-10.817,15.022
33.821,88.7584,2856.413,-66.083,-10.851,-4.447,-14.339,18.524
33.841,88.7642,2854.846,-65.935,-13.875,-4.625,-11.823,18.807
33.861,88.7714,2853.049,-65.917,-13.875,-2.846,-10.817,17.822
33.881,88.7735,2851.481,-65.953,-18.678,-3.38,-11.32,22.1
33.901,88.7865,2849.225,-66.031,-15.12,-0.534,-10.314,18.311
33.921,88.7954,2846.722,-66.149,-16.365,0.356,-8.302,18.354
33.941,88.7973,2844.604,-66.201,-18.144,1.067,-9.056,20.307
33.961,88.798,2842.926,-66.151,-23.658,0.178,-11.823,26.449
33.981,88.8007,2841.475,-66.054,-17.61,0.889,-11.069,20.819
34.001,88.8137,2839.361,-65.707,-20.99,1.423,-10.314,23.43
34.021,88.8158,2837.589,-65.404,-21.346,0.712,-8.805,23.101
34.041,88.8214,2835.822,-65.34,-21.879,1.245,-9.056,23.712
34.061,88.8262,2834.133,-65.397,-22.769,1.067,-10.817,25.23
34.081,88.8256,2832.962,-65.537,-34.687,1.601,-14.842,37.763
34.101,88.8328,2831.584,-65.674,-22.769,-2.135,-12.075,25.861
34.121,88.8361,2830.35,-65.717,-31.841,2.312,-15.848,35.642
34.141,88.8407,2829.129,-65.505,-23.836,1.423,-16.855,29.228
34.161,88.8475,2827.737,-65.345,-29.706,3.024,-16.1,33.924
34.181,88.8412,2827.271,-65.192,-24.014,5.159,-14.842,28.698
34.201,88.8418,2827.027,-65.01,-22.413,-4.269,-19.37,29.93
34.221,88.8455,2826.696,-65.031,-24.726,4.091,-19.873,31.985
34.241,88.8521,2826.039,-65.205,-41.269,1.779,-42.263,59.096
34.261,88.8537,2825.503,-65.36,-29.173,6.759,-26.163,39.764
34.281,88.8658,2824.199,-65.461,-37.533,1.957,-29.433,47.737
34.301,88.8732,2822.622,-65.401,-17.61,2.312,-16.1,23.972
34.321,88.8835,2820.568,-65.372,-33.442,-0.712,-37.231,50.05
34.341,88.8929,2818.191,-65.328,-20.634,-1.423,-17.861,27.328
34.361,88.9079,2815.09,-65.384,-34.687,-2.668,-24.653,42.639
34.381,88.9132,2812.181,-65.546,-21.346,0.712,-15.094,26.153
34.401,88.919,2809.41,-65.711,-17.966,2.312,-12.578,22.053
34.421,88.9128,2807.764,-65.843,-28.105,2.49,-18.616,33.803
34.441,88.9174,2806.196,-65.761,-29.884,4.625,-20.628,36.606
34.461,88.9163,2805.167,-65.642,-27.038,4.981,-19.873,33.924
34.481,88.9148,2804.628,-65.509,-24.014,5.87,-20.88,32.359
34.501,88.9127,2804.555,-65.456,-24.192,9.25,-22.389,34.236
34.521,88.8981,2805.883,-65.514,-28.817,8.538,-33.458,44.975
34.541,88.8967,2807.309,-65.55,-24.903,9.25,-25.911,37.11
34.561,88.9037,2808.085,-65.452,-26.149,6.937,-36.728,45.616
34.581,88.9054,2808.716,-65.437,-27.927,4.091,-36.98,46.521
34.601,88.9091,2809.043,-65.426,-14.053,6.582,-22.892,27.656
34.621,88.9136,2809.021,-65.517,-14.408,6.226,-23.647,28.382
34.641,88.9211,2808.444,-65.735,-28.283,3.024,-35.219,45.271
34.661,88.9407,2806.379,-65.914,-15.298,2.846,-22.892,27.68
34.681,88.9498,2803.928,-65.924,-17.966,1.957,-25.911,31.591
34.701,88.9549,2801.481,-65.905,-22.591,0.178,-33.206,40.163
34.721,88.9606,2799.01,-65.91,-25.259,-4.625,-34.213,42.777
34.741,88.9661,2796.55,-65.994,-19.745,-3.38,-25.408,32.355
34.761,88.9673,2794.474,-66.199,-15.831,-2.312,-20.377,25.907
34.781,88.9731,2792.362,-66.426,-14.764,-1.957,-19.37,24.434
34.801,88.9758,2790.485,-66.647,-13.341,-2.312,-17.609,22.213
34.821,88.9793,2788.76,-66.817,-18.5,-4.269,-21.634,28.784
34.841,88.9826,2787.185,-66.822,-14.764,-4.091,-17.861,23.532
34.861,88.9887,2785.514,-66.798,-16.365,-5.336,-18.364,25.17
34.881,88.9914,2784.048,-66.759,-14.942,-5.336,-17.861,23.89
34.901,88.9987,2782.38,-66.704,-20.456,-8.716,-20.88,30.502
34.921,89.0064,2780.51,-66.669,-27.927,-12.63,-23.898,38.866
34.941,89.0142,2778.463,-66.687,-34.331,-12.274,-25.659,44.583
34.961,89.0274,2775.837,-66.64,-40.201,-11.384,-28.93,50.82
34.981,89.0368,2773.034,-66.526,-40.735,-8.716,-25.408,48.794
35.001,89.0435,2770.309,-66.364,-32.374,-3.558,-20.377,38.418
35.021,89.0555,2767.237,-66.242,-46.249,-3.558,-29.936,55.207
35.041,89.0513,2765.215,-66.066,-31.129,-0.178,-21.886,38.053
35.061,89.0492,2763.933,-65.913,-30.418,0.178,-22.389,37.77
35.081,89.0541,2762.694,-65.767,-32.73,-2.135,-25.911,41.8
35.101,89.0577,2761.602,-65.554,-24.726,-4.091,-22.389,33.606
35.121,89.0545,2761.186,-65.372,-21.879,-4.803,-20.88,30.623
35.141,89.0513,2761.331,-65.225,-24.903,-9.25,-26.414,37.463
35.161,89.0498,2761.806,-65.109,-25.437,-12.63,-29.936,41.264
35.181,89.0488,2762.489,-65.071,-20.812,-11.562,-19.622,30.852
35.201,89.0448,2763.575,-64.957,-26.326,-15.298,-21.383,37.207
35.221,89.0659,2762.907,-64.863,-35.932,-19.567,-25.911,48.429
35.241,89.078,2761.469,-64.798,-20.456,-10.139,-8.805,24.47
35.261,89.0759,2760.536,-64.76,-36.11,-10.495,-10.817,39.129
35.281,89.0726,2760.13,-64.691,-17.966,-0.534,-7.044,19.305
35.301,89.0599,2760.949,-64.707,-27.927,3.736,-9.308,29.674
35.321,89.0739,2760.592,-64.737,-22.413,6.404,-6.037,24.079
35.341,89.0805,2759.815,-64.826,-28.995,17.255,-6.792,34.417
35.361,89.0967,2757.896,-64.983,-21.524,14.053,-5.786,26.348
35.381,89.1102,2755.227,-65.257,-33.086,27.75,-1.006,43.194
35.401,89.113,2752.81,-65.548,-25.081,19.033,-3.019,31.63
35.421,89.1097,2751.13,-65.933,-24.548,19.567,-28.427,42.35
35.441,89.1009,2750.542,-66.26,-31.485,12.274,-20.377,39.461
35.461,89.0993,2750.29,-66.598,-28.817,17.077,-21.131,39.605
35.481,89.1062,2749.626,-66.906,-29.706,13.697,-22.641,39.783
35.501,89.1161,2748.357,-67.151,-33.797,10.673,-22.892,42.193
35.521,89.1281,2746.398,-67.296,-31.841,9.072,-19.119,38.232
35.541,89.1365,2744.151,-67.243,-35.932,7.827,-19.119,41.448
35.561,89.1447,2741.694,-67.103,-33.264,7.649,-14.842,37.219
35.581,89.1501,2739.299,-66.942,-40.201,8.183,-15.848,43.98
35.601,89.1629,2736.359,-66.729,-37.889,10.139,-12.83,41.267
35.621,89.1687,2733.558,-66.506,-40.379,9.783,-12.327,43.337
35.641,89.1759,2730.771,-66.278,-38.778,9.606,-11.823,41.663
35.661,89.1813,2728.164,-66.055,-38.422,11.384,-13.081,42.155
35.681,89.188,2725.619,-65.925,-33.797,10.317,-11.823,37.263
35.701,89.1962,2723.012,-65.805,-34.153,9.25,-13.584,37.902
35.721,89.2005,2720.691,-65.656,-34.331,10.139,-13.584,38.288
35.741,89.212,2718.026,-65.495,-34.509,8.538,-16.352,39.13
35.761,89.2166,2715.647,-65.314,-35.221,6.759,-14.842,38.813
35.781,89.2174,2713.834,-65.138,-32.73,7.471,-12.075,35.678
35.801,89.2214,2712.246,-64.973,-27.394,4.625,-9.308,29.299
35.821,89.2224,2711.094,-64.75,-30.418,5.87,-8.805,32.206
35.841,89.2165,2710.877,-64.534,-28.461,2.135,-8.553,29.795
35.861,89.2172,2710.892,-64.414,-29.884,-5.336,-2.516,30.461
35.881,89.2166,2711.198,-64.443,-25.971,-1.067,-0.503,25.997
35.901,89.2212,2711.301,-64.471,-25.793,-0.534,1.258,25.829
35.921,89.2198,2711.7,-64.515,-24.903,-3.202,2.013,25.189
35.941,89.2249,2711.802,-64.533,-25.081,13.341,22.641,36.327
35.961,89.2249,2712.042,-64.581,-21.524,0.889,16.603,27.198
35.981,89.2245,2712.416,-64.738,-20.634,3.558,25.408,32.924
36.001,89.2255,2712.764,-64.941,-20.456,3.736,21.634,30.008
36.021,89.225,2713.197,-65.192,-20.634,4.269,22.389,30.745
36.041,89.2245,2713.677,-65.5,-20.456,4.803,22.138,30.522
36.061,89.2298,2713.714,-65.643,-25.259,4.981,23.395,34.788
36.081,89.2338,2713.453,-65.607,-23.836,4.269,21.634,32.472
36.101,89.235,2713.168,-65.572,-22.591,4.803,19.873,30.469
36.121,89.2391,2712.61,-65.581,-22.235,3.38,19.119,29.519
36.141,89.2485,2711.383,-65.52,-21.346,2.49,18.112,28.105
36.161,89.2552,2709.809,-65.427,-20.101,1.957,15.597,25.517
36.181,89.2656,2707.648,-65.368,-20.456,0.534,13.584,24.562
36.201,89.2721,2705.316,-65.283,-19.033,-0.534,12.327,22.683
36.221,89.2812,2702.639,-65.248,-18.855,-1.779,11.32,22.064
36.241,89.2905,2699.677,-65.43,-18.5,-3.202,10.566,21.544
36.261,89.2954,2696.859,-65.735,-22.769,-6.404,10.817,26.008
36.281,89.2995,2694.244,-65.899,-30.418,-8.716,10.063,33.203
36.301,89.3052,2691.704,-66.059,-27.038,-8.894,6.541,29.205
36.321,89.3078,2689.496,-65.994,-27.75,-9.606,5.786,29.93
36.341,89.3132,2687.36,-65.989,-31.129,-11.207,5.534,33.545
36.361,89.3198,2685.198,-65.898,-33.086,-9.25,5.283,34.758
36.381,89.3266,2683.001,-65.896,-32.374,-7.115,2.767,33.262
36.401,89.3308,2681.01,-65.95,-37.711,-7.471,1.761,38.484
36.421,89.3445,2678.422,-65.932,-35.754,-6.226,-2.013,36.348
36.441,89.3523,2675.813,-65.813,-46.961,-8.894,-3.019,47.891
36.461,89.3579,2673.379,-65.561,-32.908,-4.447,-3.019,33.344
36.481,89.3646,2671.016,-65.224,-48.917,-9.428,-6.541,50.245
36.501,89.3674,2669.045,-64.877,-34.153,-2.49,-9.811,35.622
36.521,89.3679,2667.599,-64.543,-34.509,-2.846,-7.547,35.439
36.541,89.3691,2666.544,-64.297,-27.572,-5.87,-13.333,31.184
36.561,89.37,2665.841,-64.089,-22.413,-0.712,-31.948,39.033
36.581,89.3705,2665.46,-63.971,-18.144,-2.49,-15.094,23.732
36.601,89.3717,2665.28,-63.853,-17.966,-4.091,-22.389,28.996
36.621,89.3761,2664.997,-63.856,-17.788,-4.269,-19.37,26.643
36.641,89.381,2664.564,-63.886,-18.5,-4.981,-22.389,29.467
